,Time (s),Acceleration x (m/s^2),Acceleration y (m/s^2),Acceleration z (m/s^2),Absolute acceleration (m/s^2)
0,0.00145,3.5,3.36,8.37,9.67
1,0.0115,3.56,3.05,8.26,9.5
2,0.0215,3.69,2.78,8.4,9.59
3,0.0315,3.73,2.6,8.55,9.68
4,0.0415,3.65,2.52,8.55,9.63
5,0.0516,3.54,2.49,8.45,9.49
6,0.0616,3.47,2.47,8.35,9.38
7,0.0716,3.51,2.45,8.45,9.47
8,0.0816,3.48,2.46,8.71,9.7
9,0.0916,3.35,2.4,8.91,9.81
10,0.102,3.13,2.28,9.07,9.86
11,0.112,2.99,2.26,9.26,9.99
12,0.122,2.9,2.39,9.5,10.2
13,0.132,2.86,2.69,9.85,10.6
14,0.142,2.97,3.09,10.3,11.2
15,0.152,3.11,3.34,10.8,11.7
16,0.162,3.04,3.22,10.6,11.4
17,0.172,2.64,2.63,9.97,10.6
18,0.182,2.11,1.79,9.6,10.0
19,0.192,1.86,1.13,9.35,9.6
20,0.202,1.76,0.661,9.13,9.32
21,0.212,1.69,0.3,9.35,9.5
22,0.222,1.65,0.142,9.55,9.69
23,0.232,1.73,0.277,9.81,9.97
24,0.242,1.85,0.57,10.3,10.5
25,0.252,1.93,0.773,10.6,10.8
26,0.262,1.97,0.757,10.7,10.9
27,0.272,1.92,0.645,10.8,11.0
28,0.282,1.75,0.375,10.7,10.9
29,0.292,1.49,0.0157,10.5,10.6
30,0.302,1.12,-0.331,10.4,10.4
31,0.312,0.849,-0.611,10.2,10.2
32,0.322,0.766,-0.894,10.0,10.1
33,0.332,0.766,-1.21,10.0,10.1
34,0.342,0.849,-1.5,9.83,9.98
35,0.352,0.815,-1.69,9.63,9.81
36,0.362,0.723,-1.77,9.69,9.88
37,0.372,0.737,-1.73,9.69,9.87
38,0.382,0.691,-1.48,10.1,10.2
39,0.392,0.569,-1.17,10.6,10.7
40,0.402,0.401,-0.916,10.8,10.8
41,0.412,0.37,-0.758,10.6,10.6
42,0.422,0.543,-0.613,10.4,10.4
43,0.432,0.676,-0.627,10.3,10.3
44,0.442,0.453,-0.857,10.1,10.2
45,0.452,0.0674,-1.12,9.92,9.99
46,0.462,-0.391,-1.54,9.66,9.79
47,0.472,-0.361,-1.64,10.1,10.3
48,0.482,-0.251,-1.24,10.7,10.7
49,0.492,-0.357,-0.788,10.8,10.8
50,0.502,-0.382,-0.342,11.1,11.2
51,0.512,-0.419,0.0552,11.5,11.5
52,0.523,-0.486,0.279,11.2,11.3
53,0.533,-0.542,0.297,10.2,10.2
54,0.543,-0.45,-0.172,9.12,9.13
55,0.553,-0.174,-0.961,8.46,8.52
56,0.563,0.144,-1.62,8.02,8.18
57,0.573,1.32,-1.91,7.71,8.05
58,0.583,4.82,-1.43,7.64,9.14
59,0.593,4.99,-0.485,9.46,10.7
60,0.603,1.9,-0.0531,9.29,9.48
61,0.613,0.503,-0.518,9.37,9.4
62,0.623,-0.197,-0.762,8.76,8.8
63,0.633,-0.627,-0.526,9.58,9.61
64,0.643,-0.693,-0.115,10.2,10.2
65,0.653,-0.808,0.205,10.0,10.0
66,0.663,-0.81,0.34,9.75,9.79
67,0.673,-0.656,0.416,9.67,9.71
68,0.683,-0.588,0.573,9.51,9.54
69,0.693,-0.704,0.75,9.61,9.67
70,0.703,-0.708,0.746,10.2,10.2
71,0.713,-0.491,0.49,10.3,10.3
72,0.723,-0.185,0.223,10.2,10.2
73,0.733,-0.0539,-0.0681,10.1,10.1
74,0.743,-0.258,-0.311,10.1,10.1
75,0.753,-0.246,-0.297,10.2,10.2
76,0.763,-0.385,-0.151,9.62,9.63
77,0.773,-0.407,0.17,9.5,9.51
78,0.783,-0.331,0.505,9.66,9.68
79,0.793,-0.546,0.809,9.4,9.45
80,0.803,-0.487,1.1,9.79,9.87
81,0.813,-0.154,1.05,9.63,9.69
82,0.823,-0.149,0.817,9.22,9.26
83,0.833,-0.191,0.755,9.08,9.12
84,0.843,-0.273,0.7,9.09,9.12
85,0.853,-0.373,0.656,9.24,9.27
86,0.863,-0.435,0.623,9.31,9.34
87,0.873,-0.386,0.749,9.35,9.39
88,0.883,-0.37,1.14,9.45,9.52
89,0.893,-0.444,1.51,9.43,9.56
90,0.903,-0.637,1.67,9.3,9.47
91,0.913,-0.73,1.68,9.21,9.4
92,0.923,-0.703,1.61,9.14,9.31
93,0.933,-0.672,1.4,9.14,9.27
94,0.943,-0.713,1.37,9.23,9.36
95,0.953,-0.756,1.47,9.38,9.52
96,0.963,-0.755,1.61,9.42,9.59
97,0.973,-0.724,1.75,9.33,9.52
98,0.983,-0.672,1.87,9.03,9.24
99,0.993,-0.614,2.0,8.78,9.03
100,1.0,-0.521,2.02,8.85,9.1
101,1.01,-0.558,2.05,8.87,9.12
102,1.02,-0.555,2.13,8.97,9.24
103,1.03,-0.424,2.11,9.05,9.3
104,1.04,-0.3,2.0,8.81,9.04
105,1.05,-0.204,2.03,8.7,8.94
106,1.06,-0.11,2.17,8.76,9.02
107,1.07,-0.0463,2.39,8.9,9.22
108,1.08,-0.0895,2.66,8.79,9.18
109,1.09,-0.0783,2.94,8.53,9.02
110,1.1,0.0738,2.91,8.4,8.9
111,1.11,0.0341,2.84,8.38,8.85
112,1.12,-0.0719,2.83,8.4,8.86
113,1.13,-0.112,2.96,8.61,9.1
114,1.14,-0.204,3.15,8.88,9.43
115,1.15,-0.244,3.22,8.95,9.52
116,1.16,-0.153,3.15,8.89,9.44
117,1.17,0.00748,2.99,8.92,9.4
118,1.18,0.147,2.61,8.94,9.31
119,1.19,0.171,2.29,9.15,9.43
120,1.2,0.108,2.25,9.7,9.96
121,1.21,-0.00554,2.45,10.1,10.4
122,1.22,-0.143,2.82,10.4,10.8
123,1.23,-0.292,3.25,10.5,11.0
124,1.24,-0.317,3.47,10.5,11.1
125,1.25,-0.296,3.49,10.4,11.0
126,1.26,-0.0666,3.53,10.2,10.8
127,1.27,0.212,3.7,9.98,10.6
128,1.28,0.374,3.88,9.83,10.6
129,1.29,0.417,4.03,9.83,10.6
130,1.3,0.361,4.22,9.9,10.8
131,1.31,0.309,4.42,10.0,11.0
132,1.32,0.104,4.57,10.4,11.3
133,1.33,-0.0377,4.42,10.9,11.8
134,1.34,-0.115,3.88,11.4,12.0
135,1.35,-0.319,3.08,11.9,12.3
136,1.36,-0.569,2.29,12.2,12.4
137,1.37,-0.787,1.65,12.3,12.4
138,1.38,-0.876,1.4,12.1,12.2
139,1.39,-0.748,1.52,11.8,11.9
140,1.4,-0.608,1.69,11.4,11.5
141,1.41,-0.465,1.74,10.8,10.9
142,1.42,-0.335,1.67,9.87,10.0
143,1.43,-0.0814,1.73,8.98,9.14
144,1.44,0.181,1.89,8.11,8.33
145,1.45,0.374,2.18,7.32,7.64
146,1.46,0.428,2.52,6.66,7.13
147,1.47,0.388,2.9,6.2,6.86
148,1.48,0.352,3.23,5.99,6.81
149,1.49,0.336,3.47,6.13,7.05
150,1.5,0.382,3.56,6.34,7.28
151,1.51,0.451,3.41,6.72,7.55
152,1.52,0.599,3.0,7.13,7.75
153,1.53,0.814,2.47,7.66,8.09
154,1.54,0.965,1.97,8.52,8.8
155,1.55,0.967,1.53,9.58,9.75
156,1.56,0.73,1.28,10.5,10.6
157,1.57,0.42,1.22,11.2,11.3
158,1.58,0.0958,1.38,11.7,11.8
159,1.59,-0.139,1.65,12.0,12.1
160,1.6,-0.272,1.81,11.9,12.1
161,1.61,-0.264,1.85,11.5,11.7
162,1.62,-0.162,1.79,11.0,11.2
163,1.63,-0.032,1.67,10.5,10.7
164,1.64,0.0133,1.58,10.0,10.2
165,1.65,0.0871,1.64,9.59,9.73
166,1.66,0.204,1.78,9.18,9.35
167,1.67,0.303,1.93,8.84,9.05
168,1.68,0.334,1.97,8.63,8.86
169,1.69,0.331,1.94,8.35,8.58
170,1.7,0.29,1.88,8.22,8.44
171,1.71,0.173,1.75,8.13,8.32
172,1.72,0.123,1.9,7.95,8.17
173,1.73,0.0843,2.11,7.79,8.07
174,1.74,-0.00329,2.33,7.72,8.06
175,1.76,-0.159,2.53,7.64,8.05
176,1.77,-0.261,2.7,7.81,8.27
177,1.78,-0.349,2.76,8.04,8.51
178,1.79,-0.544,2.75,8.32,8.78
179,1.8,-0.742,2.71,8.65,9.09
180,1.81,-0.91,2.58,8.98,9.39
181,1.82,-0.956,2.56,9.27,9.66
182,1.83,-0.988,2.59,9.25,9.65
183,1.84,-1.1,2.74,9.11,9.58
184,1.85,-1.11,2.95,9.03,9.56
185,1.86,-0.94,3.14,8.94,9.53
186,1.87,-0.688,3.22,8.96,9.54
187,1.88,-0.451,3.15,8.93,9.48
188,1.89,-0.341,2.97,9.04,9.52
189,1.9,-0.316,2.71,9.29,9.68
190,1.91,-0.426,2.52,9.6,9.94
191,1.92,-0.568,2.49,9.89,10.2
192,1.93,-0.701,2.65,10.3,10.6
193,1.94,-0.744,2.88,10.7,11.1
194,1.95,-0.67,2.96,10.6,11.0
195,1.96,-0.654,2.9,10.3,10.7
196,1.97,-0.794,2.95,10.2,10.7
197,1.98,-1.1,3.16,10.6,11.1
198,1.99,-1.48,3.42,11.1,11.7
199,2.0,-1.82,3.47,11.2,11.9
200,2.01,-1.99,3.32,11.2,11.8
201,2.02,-2.28,2.92,11.5,12.1
202,2.03,-2.75,2.34,12.2,12.7
203,2.04,-3.16,1.68,13.1,13.6
204,2.05,-3.52,0.826,14.0,14.5
205,2.06,-3.46,0.227,14.8,15.2
206,2.07,-2.84,0.0846,14.9,15.2
207,2.08,-2.05,0.05,13.7,13.9
208,2.09,-1.4,0.193,12.2,12.3
209,2.1,-0.964,0.596,10.6,10.7
210,2.11,-0.782,1.12,9.05,9.16
211,2.12,-0.802,1.76,7.8,8.04
212,2.13,-1.05,2.42,6.92,7.4
213,2.14,-1.38,2.86,6.71,7.42
214,2.15,-1.76,3.16,7.02,7.9
215,2.16,-2.23,3.53,7.71,8.77
216,2.17,-2.57,3.82,8.54,9.7
217,2.18,-2.78,4.11,9.38,10.6
218,2.19,-2.96,4.07,10.1,11.2
219,2.2,-3.06,3.74,10.4,11.5
220,2.21,-3.06,3.38,10.7,11.6
221,2.22,-2.95,3.15,10.8,11.6
222,2.23,-2.71,2.99,10.5,11.3
223,2.24,-2.37,2.71,10.1,10.7
224,2.25,-1.97,2.29,9.59,10.1
225,2.26,-1.42,1.86,8.86,9.16
226,2.27,-0.893,1.61,8.08,8.28
227,2.28,-0.507,1.48,7.37,7.53
228,2.29,-0.26,1.55,6.66,6.84
229,2.3,-0.12,1.71,6.17,6.4
230,2.31,-0.0952,1.9,5.95,6.25
231,2.32,-0.116,2.19,5.78,6.18
232,2.33,-0.0822,2.47,5.83,6.33
233,2.34,-0.0967,2.57,6.26,6.77
234,2.35,-0.221,2.57,6.54,7.03
235,2.36,-0.363,2.53,6.84,7.3
236,2.37,-0.47,2.56,7.25,7.7
237,2.38,-0.654,2.65,7.61,8.08
238,2.39,-0.831,2.75,7.84,8.35
239,2.4,-0.905,2.85,8.18,8.71
240,2.41,-0.856,3.05,8.46,9.03
241,2.42,-0.76,3.28,8.67,9.3
242,2.43,-0.729,3.53,8.95,9.65
243,2.44,-0.717,3.76,9.17,9.94
244,2.45,-0.565,3.92,9.2,10.0
245,2.46,-0.391,4.0,9.37,10.2
246,2.47,-0.315,4.05,9.67,10.5
247,2.48,-0.16,4.07,9.8,10.6
248,2.49,0.158,3.98,9.75,10.5
249,2.5,0.53,3.86,9.64,10.4
250,2.51,0.883,3.81,9.48,10.3
251,2.52,1.12,3.81,9.46,10.3
252,2.53,1.18,3.86,9.59,10.4
253,2.54,1.07,3.96,9.71,10.5
254,2.55,0.971,4.08,10.0,10.8
255,2.56,1.0,4.37,10.6,11.5
256,2.57,1.08,4.89,11.1,12.2
257,2.58,1.07,5.43,11.3,12.6
258,2.59,0.841,5.78,11.3,12.7
259,2.6,0.436,5.94,11.4,12.9
260,2.61,0.0335,6.25,11.8,13.3
261,2.62,-0.148,6.43,12.6,14.1
262,2.63,-0.278,6.09,13.6,14.9
263,2.64,-0.355,5.31,14.4,15.3
264,2.65,-0.332,4.39,14.9,15.5
265,2.66,-0.246,3.42,14.8,15.2
266,2.67,-0.137,2.54,14.3,14.5
267,2.68,-0.0196,1.99,13.6,13.7
268,2.69,0.112,1.76,12.6,12.7
269,2.7,0.251,1.68,11.5,11.7
270,2.71,0.356,1.67,10.7,10.9
271,2.72,0.401,1.56,10.2,10.3
272,2.73,0.441,1.34,9.56,9.67
273,2.74,0.527,1.16,8.65,8.74
274,2.75,0.661,1.3,7.8,7.93
275,2.76,0.824,1.69,7.17,7.41
276,2.77,0.943,2.14,6.67,7.06
277,2.78,1.02,2.54,6.35,6.92
278,2.79,1.07,2.89,6.31,7.02
279,2.8,1.08,3.07,6.4,7.19
280,2.81,1.01,3.13,6.64,7.41
281,2.82,0.811,3.06,6.97,7.66
282,2.83,0.534,3.02,7.47,8.07
283,2.84,0.233,3.15,8.13,8.73
284,2.85,-0.069,3.29,9.05,9.63
285,2.86,-0.362,3.28,10.0,10.5
286,2.87,-0.536,3.17,10.7,11.2
287,2.88,-0.595,3.0,11.1,11.5
288,2.89,-0.587,2.8,11.1,11.4
289,2.9,-0.528,2.64,10.8,11.1
290,2.91,-0.446,2.52,10.3,10.6
291,2.92,-0.379,2.46,9.7,10.0
292,2.93,-0.298,2.53,9.05,9.4
293,2.94,-0.198,2.67,8.42,8.83
294,2.95,-0.115,2.72,7.81,8.28
295,2.96,-0.0271,2.73,7.16,7.67
296,2.97,0.072,2.78,6.55,7.11
297,2.98,0.143,2.89,6.05,6.71
298,2.99,0.192,2.99,5.73,6.47
299,3.0,0.158,3.06,5.57,6.35
300,3.01,0.0943,3.07,5.64,6.43
301,3.02,0.0522,3.13,6.01,6.78
302,3.03,-0.0695,3.17,6.44,7.18
303,3.04,-0.22,3.14,6.67,7.38
304,3.05,-0.305,3.16,6.82,7.52
305,3.06,-0.3,3.31,6.9,7.66
306,3.07,-0.3,3.44,6.87,7.68
307,3.08,-0.358,3.52,6.95,7.8
308,3.09,-0.482,3.62,7.11,8.0
309,3.1,-0.571,3.69,7.16,8.08
310,3.11,-0.608,3.7,7.16,8.08
311,3.12,-0.574,3.74,7.15,8.09
312,3.13,-0.551,3.81,7.17,8.14
313,3.14,-0.614,3.82,7.26,8.23
314,3.15,-0.722,3.72,7.53,8.43
315,3.16,-0.865,3.64,7.96,8.8
316,3.17,-0.994,3.6,8.4,9.2
317,3.18,-1.07,3.64,8.76,9.55
318,3.19,-1.06,3.69,9.13,9.9
319,3.2,-0.948,3.88,9.36,10.2
320,3.21,-0.848,4.14,9.37,10.3
321,3.22,-0.911,4.38,9.38,10.4
322,3.23,-1.14,4.56,9.67,10.7
323,3.24,-1.45,4.68,10.4,11.5
324,3.25,-1.7,4.59,11.3,12.3
325,3.26,-2.02,4.17,12.2,13.1
326,3.27,-2.32,3.46,13.0,13.7
327,3.28,-2.57,2.66,13.4,13.9
328,3.29,-2.76,1.86,13.8,14.2
329,3.3,-2.86,1.24,14.3,14.6
330,3.31,-2.8,0.747,14.7,15.0
331,3.32,-2.51,0.31,14.8,15.0
332,3.33,-2.05,0.0597,14.3,14.5
333,3.34,-1.54,0.0211,13.2,13.3
334,3.35,-1.12,0.213,11.7,11.8
335,3.36,-0.88,0.558,10.2,10.3
336,3.37,-0.925,0.976,8.9,9.0
337,3.38,-1.19,1.52,8.04,8.27
338,3.39,-1.6,2.16,7.59,8.05
339,3.4,-2.04,2.73,7.39,8.13
340,3.41,-2.44,3.26,7.43,8.48
341,3.42,-2.81,3.73,7.72,9.02
342,3.43,-3.17,4.06,8.1,9.59
343,3.44,-3.49,4.28,8.58,10.2
344,3.45,-3.71,4.34,9.14,10.8
345,3.46,-3.75,4.16,9.68,11.2
346,3.47,-3.63,3.72,10.0,11.3
347,3.48,-3.31,3.18,10.2,11.2
348,3.49,-2.87,2.6,10.2,10.9
349,3.5,-2.34,2.03,9.96,10.4
350,3.51,-1.79,1.63,9.39,9.7
351,3.52,-1.3,1.36,8.83,9.03
352,3.53,-0.911,1.18,8.43,8.56
353,3.54,-0.517,1.09,7.95,8.04
354,3.55,-0.217,1.17,7.41,7.5
355,3.56,-0.015,1.32,7.0,7.12
356,3.57,0.0677,1.57,6.83,7.01
357,3.58,0.0232,1.83,6.88,7.12
358,3.59,-0.0949,2.06,7.11,7.4
359,3.6,-0.162,2.25,7.47,7.81
360,3.61,-0.166,2.36,7.77,8.12
361,3.62,-0.161,2.39,7.94,8.29
362,3.63,-0.124,2.44,7.98,8.35
363,3.64,-0.0262,2.46,7.92,8.29
364,3.65,0.053,2.39,7.89,8.25
365,3.66,0.125,2.36,8.07,8.41
366,3.67,0.175,2.35,8.46,8.78
367,3.68,0.191,2.27,8.89,9.18
368,3.69,0.206,2.2,9.26,9.52
369,3.7,0.281,2.22,9.52,9.78
370,3.71,0.378,2.32,9.62,9.9
371,3.72,0.454,2.41,9.69,9.99
372,3.73,0.479,2.48,9.82,10.1
373,3.74,0.505,2.47,9.98,10.3
374,3.75,0.545,2.47,10.1,10.4
375,3.76,0.564,2.47,10.1,10.4
376,3.77,0.54,2.52,10.2,10.6
377,3.78,0.45,2.62,10.5,10.8
378,3.79,0.354,2.74,10.8,11.2
379,3.8,0.316,2.94,11.2,11.6
380,3.81,0.325,3.32,11.4,11.8
381,3.82,0.317,3.76,11.2,11.9
382,3.83,0.165,4.14,11.0,11.8
383,3.84,-0.11,4.54,11.0,11.9
384,3.85,-0.4,4.93,11.4,12.4
385,3.86,-0.752,4.93,12.4,13.3
386,3.87,-1.03,4.27,13.8,14.5
387,3.88,-1.12,3.19,15.3,15.7
388,3.89,-1.07,2.14,16.3,16.5
389,3.9,-0.928,1.31,16.6,16.7
390,3.91,-0.754,0.73,16.3,16.3
391,3.92,-0.566,0.465,15.5,15.5
392,3.93,-0.468,0.474,14.3,14.3
393,3.94,-0.49,0.695,13.0,13.1
394,3.95,-0.566,0.979,11.8,11.8
395,3.96,-0.608,1.22,10.5,10.6
396,3.97,-0.564,1.43,9.26,9.39
397,3.98,-0.465,1.62,8.15,8.32
398,3.99,-0.356,1.76,7.2,7.42
399,4.0,-0.355,1.95,6.51,6.8
400,4.01,-0.376,2.26,6.25,6.65
401,4.02,-0.393,2.48,6.2,6.69
402,4.03,-0.545,2.67,6.15,6.73
403,4.04,-0.715,2.82,6.24,6.89
404,4.05,-0.911,2.91,6.49,7.18
405,4.06,-1.19,3.01,6.88,7.6
406,4.07,-1.46,3.1,7.54,8.29
407,4.08,-1.7,3.16,8.55,9.28
408,4.09,-1.89,2.98,9.75,10.4
409,4.1,-1.94,2.49,10.9,11.3
410,4.11,-1.75,1.91,11.6,11.9
411,4.12,-1.44,1.33,12.0,12.1
412,4.13,-1.14,0.733,11.8,11.8
413,4.14,-0.868,0.36,11.0,11.1
414,4.15,-0.61,0.409,9.99,10.0
415,4.16,-0.501,0.689,8.89,8.93
416,4.17,-0.584,1.07,8.01,8.11
417,4.18,-0.745,1.49,7.37,7.56
418,4.19,-0.876,1.9,6.96,7.27
419,4.2,-0.956,2.2,6.81,7.22
420,4.21,-1.01,2.3,6.68,7.13
421,4.22,-1.01,2.35,6.51,7.0
422,4.23,-0.952,2.39,6.33,6.83
423,4.24,-0.888,2.41,6.14,6.66
424,4.25,-0.824,2.45,6.0,6.53
425,4.26,-0.765,2.48,5.96,6.5
426,4.27,-0.751,2.47,6.04,6.57
427,4.28,-0.796,2.5,6.2,6.74
428,4.29,-0.83,2.57,6.45,7.0
429,4.3,-0.895,2.67,6.82,7.38
430,4.31,-1.02,2.73,7.28,7.84
431,4.32,-1.13,2.77,7.69,8.25
432,4.33,-1.15,2.82,7.92,8.49
433,4.34,-1.16,2.96,8.08,8.68
434,4.35,-1.22,3.11,8.29,8.94
435,4.36,-1.34,3.21,8.54,9.22
436,4.37,-1.44,3.26,8.74,9.43
437,4.38,-1.55,3.3,8.89,9.6
438,4.39,-1.7,3.31,9.11,9.84
439,4.4,-1.83,3.29,9.55,10.3
440,4.41,-1.92,3.21,10.2,10.9
441,4.42,-1.99,3.0,10.8,11.3
442,4.43,-2.02,2.73,11.2,11.7
443,4.44,-1.98,2.54,11.6,12.0
444,4.45,-1.9,2.46,11.7,12.1
445,4.46,-1.77,2.61,11.3,11.7
446,4.47,-1.59,2.98,10.7,11.3
447,4.48,-1.52,3.34,10.0,10.7
448,4.49,-1.54,3.72,9.26,10.1
449,4.5,-1.81,4.01,8.68,9.73
450,4.51,-2.34,4.13,8.69,9.9
451,4.52,-3.08,3.96,9.66,10.9
452,4.53,-3.94,3.35,11.6,12.7
453,4.54,-4.56,2.32,13.7,14.6
454,4.55,-4.7,1.13,15.4,16.1
455,4.56,-4.62,-0.134,16.5,17.2
456,4.57,-4.27,-1.31,16.6,17.2
457,4.58,-3.5,-1.92,15.6,16.1
458,4.59,-2.58,-1.98,13.7,14.1
459,4.6,-1.79,-1.9,11.9,12.1
460,4.61,-1.25,-1.95,10.3,10.5
461,4.62,-1.0,-1.98,8.91,9.18
462,4.63,-0.936,-1.72,7.92,8.16
463,4.64,-1.03,-1.29,7.42,7.6
464,4.65,-1.31,-0.947,7.37,7.54
465,4.66,-1.61,-0.58,7.59,7.78
466,4.67,-1.93,-0.217,7.94,8.17
467,4.68,-2.32,0.098,8.2,8.53
468,4.69,-2.68,0.413,8.36,8.79
469,4.7,-2.99,0.76,8.49,9.03
470,4.71,-3.28,1.03,8.6,9.27
471,4.72,-3.53,1.2,8.86,9.61
472,4.73,-3.68,1.29,9.28,10.1
473,4.74,-3.72,1.16,9.91,10.6
474,4.75,-3.6,0.752,10.5,11.1
475,4.76,-3.28,0.144,10.7,11.2
476,4.77,-2.83,-0.47,10.8,11.1
477,4.78,-2.37,-0.963,10.9,11.2
478,4.79,-2.04,-1.51,11.2,11.5
479,4.8,-1.66,-1.91,11.4,11.7
480,4.81,-1.28,-1.9,11.2,11.4
481,4.82,-1.08,-1.63,11.0,11.1
482,4.83,-1.09,-1.29,10.7,10.9
483,4.84,-1.2,-0.863,10.4,10.5
484,4.85,-1.27,-0.317,9.94,10.0
485,4.86,-1.44,0.168,9.61,9.72
486,4.87,-1.64,0.598,9.48,9.64
487,4.88,-1.79,0.936,9.41,9.62
488,4.89,-1.86,1.16,9.27,9.53
489,4.9,-1.87,1.32,9.15,9.43
490,4.91,-1.86,1.4,9.13,9.43
491,4.92,-1.88,1.39,9.34,9.62
492,4.93,-1.87,1.31,9.6,9.87
493,4.94,-1.81,1.25,9.67,9.92
494,4.95,-1.72,1.2,9.61,9.84
495,4.96,-1.64,1.12,9.66,9.86
496,4.97,-1.57,1.02,9.75,9.93
497,4.98,-1.54,1.02,9.85,10.0
498,4.99,-1.53,1.07,9.98,10.2
499,5.0,-1.53,1.09,10.1,10.3
500,5.01,-1.5,1.07,10.0,10.2
501,5.02,-1.44,1.1,9.83,9.99
502,5.03,-1.42,1.17,9.7,9.87
503,5.04,-1.43,1.18,9.7,9.88
504,5.05,-1.44,1.15,9.7,9.87
505,5.06,-1.45,1.17,9.76,9.94
506,5.07,-1.46,1.15,9.96,10.1
507,5.08,-1.5,1.04,10.1,10.3
508,5.09,-1.46,1.01,10.0,10.2
509,5.1,-1.35,1.07,9.9,10.0
510,5.11,-1.3,1.09,9.84,9.99
511,5.12,-1.27,1.02,9.78,9.92
512,5.13,-1.13,1.09,9.55,9.68
513,5.14,-0.961,1.32,9.22,9.37
514,5.15,-0.837,1.5,8.95,9.11
515,5.16,-0.775,1.67,8.78,8.97
516,5.17,-0.725,1.9,8.66,8.89
517,5.18,-0.74,2.14,8.7,8.99
518,5.19,-0.806,2.21,9.01,9.32
519,5.2,-0.798,2.08,9.47,9.73
520,5.21,-0.647,1.95,9.94,10.1
521,5.22,-0.402,1.83,10.3,10.5
522,5.23,-0.132,1.7,10.4,10.5
523,5.24,0.193,1.71,10.1,10.2
524,5.25,0.512,1.95,9.67,9.88
525,5.26,0.705,2.26,9.28,9.58
526,5.27,0.749,2.6,8.88,9.29
527,5.28,0.695,3.21,8.29,8.92
528,5.29,0.504,4.03,7.65,8.66
529,5.3,0.183,4.78,7.1,8.56
530,5.31,-0.065,5.4,6.89,8.75
531,5.32,-0.198,5.7,7.19,9.18
532,5.33,-0.197,5.36,7.9,9.55
533,5.34,-0.0518,4.68,8.87,10.0
534,5.35,0.145,3.95,9.9,10.7
535,5.36,0.313,3.26,10.8,11.3
536,5.37,0.519,2.69,11.5,11.8
537,5.38,0.814,2.29,11.8,12.0
538,5.39,1.05,1.93,11.9,12.1
539,5.4,1.25,1.6,11.8,12.0
540,5.41,1.48,1.33,11.7,11.9
541,5.42,1.75,1.09,11.4,11.6
542,5.43,2.05,0.924,11.1,11.3
543,5.44,2.33,0.901,10.6,10.9
544,5.45,2.5,0.986,10.2,10.6
545,5.46,2.56,1.09,9.85,10.2
546,5.47,2.53,1.21,9.49,9.9
547,5.48,2.48,1.32,9.18,9.61
548,5.49,2.43,1.48,8.88,9.33
549,5.5,2.39,1.63,8.66,9.13
550,5.51,2.32,1.69,8.51,8.98
551,5.52,2.22,1.8,8.45,8.92
552,5.53,2.08,1.98,8.49,8.97
553,5.54,1.91,2.11,8.6,9.06
554,5.55,1.72,2.19,8.81,9.24
555,5.56,1.53,2.21,9.08,9.47
556,5.57,1.35,2.18,9.43,9.77
557,5.58,1.24,2.04,9.78,10.1
558,5.59,1.19,1.81,10.0,10.3
559,5.6,1.18,1.66,10.3,10.5
560,5.61,1.11,1.61,10.6,10.8
561,5.62,1.05,1.58,10.9,11.1
562,5.63,1.04,1.49,11.0,11.1
563,5.64,1.11,1.34,10.8,10.9
564,5.65,1.24,1.28,10.5,10.6
565,5.66,1.34,1.3,10.1,10.3
566,5.67,1.3,1.41,9.9,10.1
567,5.68,1.27,1.66,9.6,9.83
568,5.69,1.36,1.87,8.99,9.29
569,5.7,1.4,2.05,8.5,8.85
570,5.71,1.4,2.16,8.13,8.53
571,5.72,1.42,2.26,7.82,8.26
572,5.73,1.4,2.37,7.72,8.2
573,5.74,1.31,2.49,7.94,8.42
574,5.75,1.18,2.57,8.31,8.78
575,5.76,1.1,2.55,8.62,9.05
576,5.77,1.14,2.5,8.73,9.15
577,5.78,1.26,2.5,8.76,9.19
578,5.79,1.32,2.53,8.71,9.17
579,5.8,1.44,2.53,8.53,9.01
580,5.81,1.56,2.55,8.3,8.82
581,5.82,1.59,2.6,8.16,8.71
582,5.83,1.59,2.78,8.12,8.73
583,5.84,1.5,3.05,8.5,9.15
584,5.85,1.33,3.07,8.9,9.51
585,5.86,1.33,3.08,9.06,9.66
586,5.87,1.42,3.24,9.1,9.76
587,5.88,1.34,3.27,9.28,9.93
588,5.89,1.11,3.17,9.57,10.1
589,5.9,0.842,3.1,9.74,10.3
590,5.91,0.553,3.15,9.86,10.4
591,5.92,0.21,3.21,10.1,10.6
592,5.93,-0.211,3.15,10.5,11.0
593,5.94,-0.678,3.15,11.0,11.5
594,5.95,-1.2,3.1,11.9,12.4
595,5.96,-1.7,2.92,13.2,13.6
596,5.97,-2.06,2.64,14.4,14.8
597,5.98,-2.21,2.27,15.3,15.6
598,5.99,-2.11,1.77,15.2,15.5
599,6.0,-1.6,1.32,14.0,14.1
600,6.01,-0.857,1.12,12.4,12.5
601,6.02,-0.171,0.883,10.7,10.8
602,6.03,0.367,0.698,9.24,9.27
603,6.04,0.677,0.663,8.11,8.16
604,6.05,0.719,0.839,7.5,7.59
605,6.06,0.413,1.3,7.61,7.73
606,6.07,-0.283,1.82,8.16,8.36
607,6.08,-0.98,2.46,8.74,9.13
608,6.09,-1.49,3.14,9.07,9.71
609,6.1,-1.94,3.69,9.15,10.1
610,6.11,-2.31,4.11,9.11,10.3
611,6.12,-2.61,4.44,9.09,10.5
612,6.13,-2.82,4.67,9.15,10.7
613,6.14,-2.87,4.72,9.16,10.7
614,6.15,-2.75,4.57,9.1,10.5
615,6.16,-2.5,4.2,9.15,10.4
616,6.17,-2.19,3.58,9.17,10.1
617,6.18,-1.74,2.94,9.04,9.66
618,6.19,-1.22,2.4,8.79,9.19
619,6.2,-0.752,1.97,8.54,8.79
620,6.21,-0.339,1.59,8.25,8.41
621,6.22,-0.000898,1.35,7.82,7.94
622,6.23,0.231,1.31,7.4,7.52
623,6.24,0.325,1.39,7.05,7.2
624,6.25,0.298,1.54,6.78,6.96
625,6.26,0.202,1.78,6.68,6.92
626,6.27,0.087,2.05,6.7,7.01
627,6.28,-0.0653,2.27,6.74,7.11
628,6.29,-0.247,2.52,6.88,7.33
629,6.3,-0.461,2.77,7.09,7.63
630,6.31,-0.583,2.92,7.2,7.79
631,6.32,-0.587,3.0,7.13,7.75
632,6.33,-0.576,3.08,7.16,7.82
633,6.34,-0.558,3.12,7.29,7.95
634,6.35,-0.536,3.17,7.57,8.22
635,6.36,-0.547,3.28,8.02,8.68
636,6.37,-0.56,3.36,8.51,9.17
637,6.38,-0.508,3.38,8.83,9.47
638,6.39,-0.319,3.39,8.95,9.58
639,6.4,-0.0611,3.37,8.75,9.38
640,6.41,0.175,3.28,8.48,9.09
641,6.42,0.43,3.17,8.29,8.89
642,6.43,0.745,3.16,8.22,8.84
643,6.44,1.09,3.08,8.4,9.01
644,6.45,1.46,3.12,8.93,9.57
645,6.46,1.67,3.13,9.63,10.3
646,6.47,1.5,3.0,10.6,11.1
647,6.48,0.848,2.95,12.2,12.6
648,6.49,-0.00299,3.0,14.2,14.5
649,6.5,-0.746,2.96,16.1,16.4
650,6.51,-1.41,2.49,17.5,17.7
651,6.52,-1.94,1.7,17.8,18.0
652,6.53,-2.18,0.995,17.3,17.5
653,6.54,-2.36,0.55,16.6,16.8
654,6.55,-2.64,0.293,16.4,16.6
655,6.56,-2.84,0.226,16.5,16.7
656,6.57,-2.79,0.23,16.5,16.7
657,6.58,-2.47,0.248,16.0,16.1
658,6.59,-1.99,0.187,14.8,14.9
659,6.6,-1.53,0.0242,13.1,13.2
660,6.61,-1.02,-0.145,10.9,11.0
661,6.62,-0.514,-0.0909,8.78,8.79
662,6.63,-0.00599,0.216,6.88,6.88
663,6.64,0.439,0.655,5.42,5.48
664,6.66,0.711,1.08,4.45,4.63
665,6.67,0.813,1.48,4.06,4.4
666,6.68,0.808,1.89,4.08,4.57
667,6.69,0.761,2.1,4.5,5.02
668,6.7,0.551,2.13,5.29,5.73
669,6.71,0.0949,2.07,6.42,6.74
670,6.72,-0.298,1.95,7.72,7.97
671,6.73,-0.56,1.8,8.92,9.12
672,6.74,-0.661,1.54,9.84,9.98
673,6.75,-0.652,1.31,10.3,10.4
674,6.76,-0.642,1.13,10.5,10.6
675,6.77,-0.69,1.02,10.7,10.8
676,6.78,-0.788,1.06,11.0,11.1
677,6.79,-0.902,1.23,11.1,11.2
678,6.8,-0.996,1.47,11.0,11.1
679,6.81,-1.02,1.78,10.6,10.8
680,6.82,-0.955,1.98,10.1,10.3
681,6.83,-0.821,1.99,9.38,9.62
682,6.84,-0.641,1.97,8.7,8.94
683,6.85,-0.436,1.99,8.17,8.42
684,6.86,-0.283,1.98,7.74,8.0
685,6.87,-0.135,1.93,7.56,7.81
686,6.88,-0.0439,1.78,7.55,7.76
687,6.89,0.0157,1.66,7.54,7.72
688,6.9,0.0539,1.68,7.47,7.66
689,6.91,0.0455,1.79,7.49,7.7
690,6.92,-0.0557,1.97,7.54,7.79
691,6.93,-0.234,2.15,7.6,7.9
692,6.94,-0.377,2.38,7.61,7.98
693,6.95,-0.518,2.59,7.57,8.02
694,6.96,-0.598,2.72,7.66,8.16
695,6.97,-0.656,2.79,7.88,8.39
696,6.98,-0.739,2.83,8.15,8.65
697,6.99,-0.837,2.78,8.49,8.97
698,7.0,-0.943,2.68,8.84,9.29
699,7.01,-1.13,2.5,9.09,9.49
700,7.02,-1.34,2.39,9.19,9.59
701,7.03,-1.55,2.49,9.35,9.8
702,7.04,-1.68,2.62,9.49,9.98
703,7.05,-1.72,2.85,9.56,10.1
704,7.06,-1.71,3.21,9.49,10.2
705,7.07,-1.73,3.52,9.25,10.1
706,7.08,-1.81,3.73,8.9,9.82
707,7.09,-2.0,3.78,8.47,9.49
708,7.1,-2.32,3.71,8.42,9.49
709,7.11,-2.84,3.63,9.34,10.4
710,7.12,-3.43,3.54,10.8,11.9
711,7.13,-3.82,3.24,12.2,13.2
712,7.14,-3.92,2.47,13.2,14.0
713,7.15,-3.77,1.34,13.8,14.4
714,7.16,-3.5,0.347,14.5,14.9
715,7.17,-3.21,-0.279,15.2,15.5
716,7.18,-2.85,-0.551,15.3,15.6
717,7.19,-2.35,-0.5,14.8,15.0
718,7.2,-1.89,-0.364,13.6,13.7
719,7.21,-1.58,-0.328,11.6,11.7
720,7.22,-1.35,-0.0198,9.65,9.74
721,7.23,-1.28,0.48,8.0,8.12
722,7.24,-1.39,1.03,6.94,7.15
723,7.25,-1.67,1.65,6.36,6.78
724,7.26,-2.04,2.3,6.17,6.89
725,7.27,-2.48,2.87,6.19,7.27
726,7.28,-2.97,3.34,6.26,7.69
727,7.29,-3.39,3.81,6.3,8.11
728,7.3,-3.8,4.29,6.41,8.6
729,7.31,-4.37,4.75,6.73,9.32
730,7.32,-4.9,5.25,7.31,10.2
731,7.33,-5.22,5.63,8.03,11.1
732,7.34,-5.28,5.69,8.85,11.8
733,7.35,-5.14,5.3,9.81,12.3
734,7.36,-4.74,4.37,10.7,12.5
735,7.37,-4.02,3.1,11.1,12.2
736,7.38,-3.05,1.98,11.1,11.7
737,7.39,-2.03,1.08,10.7,10.9
738,7.4,-1.22,0.362,9.96,10.0
739,7.41,-0.632,0.0784,8.96,8.99
740,7.42,-0.305,0.275,7.92,7.93
741,7.43,-0.256,0.769,7.09,7.14
742,7.44,-0.37,1.37,6.71,6.86
743,7.45,-0.567,1.89,6.63,6.91
744,7.46,-0.738,2.31,6.59,7.03
745,7.47,-0.804,2.69,6.6,7.18
746,7.48,-0.818,2.94,6.69,7.35
747,7.49,-0.806,2.99,6.71,7.39
748,7.5,-0.788,3.02,6.73,7.42
749,7.51,-0.781,3.1,6.8,7.51
750,7.52,-0.752,3.11,6.89,7.6
751,7.53,-0.747,3.11,7.02,7.71
752,7.54,-0.734,3.17,7.22,7.93
753,7.55,-0.705,3.21,7.56,8.24
754,7.56,-0.663,3.17,7.94,8.58
755,7.57,-0.663,3.11,8.49,9.07
756,7.58,-0.61,3.06,9.11,9.63
757,7.59,-0.521,2.98,9.67,10.1
758,7.6,-0.453,2.84,10.1,10.5
759,7.61,-0.314,2.76,10.5,10.8
760,7.62,-0.146,2.68,10.7,11.1
761,7.63,-0.0537,2.52,10.9,11.2
762,7.64,0.00748,2.4,11.0,11.2
763,7.65,0.0695,2.35,10.9,11.2
764,7.66,0.0837,2.35,10.9,11.2
765,7.67,0.0133,2.45,11.0,11.2
766,7.68,-0.068,2.68,11.1,11.4
767,7.69,-0.154,3.03,11.2,11.6
768,7.7,-0.27,3.32,11.3,11.8
769,7.71,-0.427,3.59,11.3,11.9
770,7.72,-0.636,3.94,11.3,12.0
771,7.73,-0.944,4.32,11.6,12.4
772,7.74,-1.32,4.61,12.3,13.2
773,7.75,-1.68,4.64,13.3,14.2
774,7.76,-1.91,4.32,14.4,15.1
775,7.77,-2.06,3.64,15.4,15.9
776,7.78,-2.09,2.9,15.8,16.2
777,7.79,-1.88,2.26,15.6,15.9
778,7.8,-1.45,1.74,14.6,14.7
779,7.81,-0.976,1.42,13.1,13.2
780,7.82,-0.661,1.27,11.9,11.9
781,7.83,-0.458,1.28,10.8,10.8
782,7.84,-0.406,1.35,9.83,9.93
783,7.85,-0.401,1.49,9.04,9.17
784,7.86,-0.371,1.67,8.38,8.55
785,7.87,-0.264,1.76,7.77,7.97
786,7.88,-0.123,1.77,7.37,7.58
787,7.89,0.013,1.8,7.15,7.37
788,7.9,0.184,1.95,6.88,7.15
789,7.91,0.323,2.22,6.58,6.95
790,7.92,0.457,2.52,6.32,6.81
791,7.93,0.589,2.81,6.15,6.79
792,7.94,0.726,2.96,6.1,6.82
793,7.95,0.83,2.97,6.12,6.85
794,7.96,0.879,2.92,6.35,7.05
795,7.97,0.826,2.86,6.98,7.59
796,7.98,0.59,2.88,8.21,8.72
797,7.99,0.214,2.81,9.82,10.2
798,8.0,-0.0948,2.47,11.5,11.7
799,8.01,-0.292,1.96,12.7,12.8
800,8.02,-0.317,1.58,13.3,13.4
801,8.03,-0.22,1.29,13.1,13.2
802,8.04,-0.0639,1.07,12.5,12.6
803,8.05,0.0946,0.982,11.6,11.6
804,8.06,0.164,0.976,10.6,10.6
805,8.07,0.106,1.07,9.73,9.79
806,8.08,0.0248,1.29,9.01,9.1
807,8.09,-0.0446,1.47,8.39,8.52
808,8.1,-0.133,1.55,7.82,7.97
809,8.11,-0.174,1.68,7.27,7.47
810,8.12,-0.175,1.85,6.73,6.98
811,8.13,-0.22,1.95,6.24,6.54
812,8.14,-0.298,2.11,5.84,6.21
813,8.15,-0.353,2.36,5.56,6.05
814,8.16,-0.41,2.58,5.44,6.03
815,8.17,-0.483,2.74,5.5,6.17
816,8.18,-0.582,2.88,5.77,6.47
817,8.19,-0.697,2.99,6.13,6.86
818,8.2,-0.765,3.2,6.44,7.23
819,8.21,-0.777,3.44,6.67,7.54
820,8.22,-0.776,3.68,6.94,7.9
821,8.23,-0.746,3.86,7.3,8.29
822,8.24,-0.715,3.89,7.64,8.61
823,8.25,-0.681,3.96,7.83,8.8
824,8.26,-0.608,4.08,7.86,8.88
825,8.27,-0.575,4.13,7.91,8.94
826,8.28,-0.594,4.17,8.05,9.09
827,8.29,-0.666,4.2,8.3,9.33
828,8.3,-0.789,4.24,8.8,9.8
829,8.31,-0.961,4.19,9.52,10.4
830,8.32,-1.15,4.0,10.3,11.1
831,8.33,-1.25,3.81,10.9,11.7
832,8.34,-1.16,3.61,11.1,11.7
833,8.35,-0.977,3.39,10.7,11.3
834,8.36,-0.864,3.16,10.2,10.7
835,8.37,-0.954,2.85,9.95,10.4
836,8.38,-1.21,2.71,9.91,10.3
837,8.39,-1.56,2.69,10.1,10.6
838,8.4,-2.1,2.49,10.8,11.3
839,8.41,-2.76,2.18,12.0,12.5
840,8.42,-3.37,2.03,13.5,14.0
841,8.43,-3.8,2.03,14.7,15.3
842,8.44,-3.92,2.01,15.1,15.8
843,8.45,-3.66,1.9,14.9,15.4
844,8.46,-3.06,1.76,14.3,14.7
845,8.47,-2.47,1.5,13.6,13.9
846,8.48,-1.98,1.21,12.9,13.1
847,8.49,-1.5,1.08,11.9,12.1
848,8.5,-1.12,0.971,10.8,11.0
849,8.51,-0.806,1.02,9.61,9.7
850,8.52,-0.55,1.41,8.46,8.6
851,8.53,-0.448,1.9,7.61,7.86
852,8.54,-0.537,2.49,7.05,7.49
853,8.55,-0.709,3.19,6.76,7.51
854,8.56,-0.941,3.85,6.72,7.8
855,8.57,-1.14,4.4,6.84,8.21
856,8.58,-1.29,4.94,7.22,8.84
857,8.59,-1.51,5.33,7.93,9.68
858,8.6,-1.69,5.55,8.86,10.6
859,8.61,-1.76,5.48,9.9,11.5
860,8.62,-1.64,4.98,10.9,12.1
861,8.63,-1.37,4.19,11.7,12.5
862,8.64,-0.894,3.43,12.0,12.5
863,8.65,-0.229,2.68,11.8,12.1
864,8.66,0.417,1.87,11.5,11.7
865,8.67,0.998,1.09,11.3,11.4
866,8.68,1.53,0.572,10.9,11.0
867,8.69,1.96,0.378,10.4,10.6
868,8.7,2.26,0.43,9.9,10.2
869,8.71,2.37,0.571,9.48,9.79
870,8.72,2.4,0.788,9.0,9.34
871,8.73,2.45,1.07,8.51,8.92
872,8.74,2.43,1.33,8.18,8.64
873,8.75,2.36,1.52,8.04,8.52
874,8.76,2.28,1.65,7.98,8.47
875,8.77,2.16,1.77,7.89,8.37
876,8.78,2.07,1.92,7.79,8.29
877,8.79,1.99,2.01,7.87,8.36
878,8.8,1.91,2.08,7.91,8.4
879,8.81,1.84,2.21,7.85,8.36
880,8.82,1.76,2.44,7.84,8.4
881,8.83,1.62,2.64,7.91,8.49
882,8.84,1.48,2.78,8.0,8.6
883,8.85,1.45,2.91,8.03,8.66
884,8.86,1.48,3.01,8.03,8.7
885,8.87,1.51,3.03,8.06,8.74
886,8.88,1.56,2.99,8.09,8.77
887,8.89,1.6,2.97,8.11,8.79
888,8.9,1.64,2.95,8.13,8.8
889,8.91,1.66,2.97,8.18,8.86
890,8.92,1.64,2.99,8.22,8.9
891,8.93,1.63,2.98,8.23,8.91
892,8.94,1.6,3.04,8.26,8.94
893,8.95,1.47,3.12,8.37,9.06
894,8.96,1.31,3.22,8.6,9.27
895,8.97,1.13,3.39,8.81,9.51
896,8.98,0.954,3.6,8.89,9.64
897,8.99,0.841,3.87,8.7,9.57
898,9.0,0.712,4.31,8.41,9.48
899,9.01,0.484,4.96,8.28,9.67
900,9.02,0.154,5.79,8.82,10.5
901,9.03,-0.201,6.27,10.1,11.9
902,9.04,-0.569,5.97,11.8,13.2
903,9.05,-0.658,5.23,13.5,14.5
904,9.06,-0.604,4.3,14.9,15.6
905,9.07,-0.498,3.32,15.9,16.2
906,9.08,-0.407,2.54,16.2,16.4
907,9.09,-0.246,2.06,15.9,16.0
908,9.1,-0.0186,1.78,15.1,15.2
909,9.11,0.174,1.59,14.1,14.2
910,9.12,0.223,1.4,13.2,13.2
911,9.13,0.165,1.3,12.2,12.3
912,9.14,0.0584,1.34,11.1,11.2
913,9.15,-0.142,1.48,10.0,10.1
914,9.16,-0.403,1.71,8.88,9.06
915,9.17,-0.624,2.03,7.83,8.11
916,9.18,-0.771,2.32,6.88,7.3
917,9.19,-0.912,2.52,6.12,6.68
918,9.2,-1.08,2.69,5.6,6.31
919,9.21,-1.26,2.9,5.41,6.27
920,9.22,-1.43,3.05,5.42,6.38
921,9.23,-1.6,3.18,5.57,6.61
922,9.24,-1.68,3.31,5.9,6.98
923,9.25,-1.76,3.33,6.44,7.46
924,9.26,-1.85,3.3,6.98,7.93
925,9.27,-1.9,3.33,7.53,8.45
926,9.28,-1.96,3.35,8.17,9.04
927,9.29,-1.94,3.24,8.93,9.69
928,9.3,-1.78,3.0,9.7,10.3
929,9.31,-1.53,2.61,10.5,10.9
930,9.32,-1.2,2.07,11.1,11.3
931,9.33,-0.826,1.45,11.5,11.6
932,9.34,-0.478,0.943,11.6,11.7
933,9.35,-0.146,0.672,11.3,11.3
934,9.36,0.164,0.767,10.6,10.6
935,9.37,0.302,1.06,9.75,9.81
936,9.38,0.252,1.42,9.07,9.18
937,9.39,0.214,1.85,8.58,8.78
938,9.4,0.204,2.11,8.23,8.5
939,9.41,0.17,2.2,8.16,8.45
940,9.42,0.155,2.14,8.28,8.55
941,9.43,0.148,2.0,8.35,8.59
942,9.44,0.138,2.02,8.36,8.6
943,9.45,0.0971,2.15,8.4,8.67
944,9.46,0.0337,2.22,8.31,8.6
945,9.47,-0.0317,2.3,8.11,8.43
946,9.48,-0.103,2.45,7.86,8.24
947,9.49,-0.153,2.6,7.77,8.2
948,9.5,-0.222,2.66,7.87,8.31
949,9.51,-0.322,2.75,8.05,8.52
950,9.52,-0.443,2.89,8.29,8.79
951,9.53,-0.565,3.01,8.59,9.12
952,9.54,-0.678,3.05,8.8,9.34
953,9.55,-0.768,3.08,8.93,9.48
954,9.56,-0.837,3.04,9.16,9.69
955,9.57,-0.893,2.96,9.44,9.94
956,9.58,-0.923,2.84,9.73,10.2
957,9.59,-0.938,2.66,10.2,10.6
958,9.6,-0.999,2.37,10.7,11.0
959,9.61,-1.07,2.09,11.2,11.4
960,9.62,-1.1,1.96,11.6,11.8
961,9.63,-1.18,1.97,11.8,12.0
962,9.64,-1.31,2.07,11.8,12.0
963,9.65,-1.46,2.34,11.5,11.9
964,9.66,-1.61,2.61,11.3,11.7
965,9.67,-1.81,2.79,11.1,11.6
966,9.68,-1.98,2.88,11.3,11.9
967,9.69,-2.14,2.7,12.0,12.4
968,9.7,-2.19,2.08,12.8,13.1
969,9.71,-1.99,1.26,13.4,13.6
970,9.72,-1.58,0.449,13.5,13.6
971,9.73,-1.05,-0.272,12.9,13.0
972,9.74,-0.582,-0.794,12.0,12.1
973,9.75,-0.164,-1.02,10.9,11.0
974,9.76,0.0747,-0.982,10.0,10.0
975,9.77,0.13,-0.726,9.55,9.58
976,9.78,-0.0732,-0.463,9.69,9.7
977,9.79,-0.447,-0.272,10.1,10.1
978,9.8,-0.766,-0.00359,10.3,10.3
979,9.81,-0.977,0.21,10.1,10.1
980,9.82,-1.09,0.304,9.62,9.68
981,9.83,-1.13,0.446,8.99,9.07
982,9.84,-1.11,0.627,8.33,8.43
983,9.85,-1.08,0.73,7.84,7.95
984,9.86,-1.04,0.735,7.74,7.84
985,9.87,-1.0,0.648,8.05,8.14
986,9.88,-0.988,0.54,8.55,8.63
987,9.89,-1.02,0.382,9.14,9.21
988,9.9,-1.07,0.234,9.7,9.76
989,9.91,-1.13,0.134,10.0,10.1
990,9.92,-1.12,0.066,10.1,10.2
991,9.93,-1.09,0.0229,10.1,10.1
992,9.94,-1.01,0.0469,9.84,9.89
993,9.95,-0.944,0.0648,9.6,9.65
994,9.96,-0.936,0.0948,9.53,9.58
995,9.97,-0.963,0.111,9.64,9.69
996,9.98,-0.981,0.11,9.99,10.0
997,9.99,-1.0,0.056,10.4,10.5
998,10.0,-0.95,-0.0177,10.8,10.9
999,10.0,-0.801,-0.123,11.1,11.2
1000,10.0,-0.588,-0.295,11.3,11.4
1001,10.0,-0.335,-0.433,11.3,11.3
1002,10.0,-0.126,-0.483,11.1,11.1
1003,10.1,0.0271,-0.402,10.9,10.9
1004,10.1,0.0967,-0.293,10.4,10.4
1005,10.1,0.123,-0.0724,9.92,9.92
1006,10.1,0.1,0.338,9.45,9.46
1007,10.1,-0.0251,0.818,9.29,9.33
1008,10.1,-0.282,1.16,9.38,9.46
1009,10.1,-0.568,1.44,9.62,9.74
1010,10.1,-0.819,1.67,9.92,10.1
1011,10.1,-1.03,1.87,10.1,10.3
1012,10.1,-1.19,2.05,10.2,10.5
1013,10.2,-1.28,2.15,10.2,10.5
1014,10.2,-1.28,2.15,10.1,10.4
1015,10.2,-1.27,2.06,9.87,10.2
1016,10.2,-1.12,1.92,9.51,9.77
1017,10.2,-0.851,1.7,9.06,9.25
1018,10.2,-0.478,1.43,8.7,8.83
1019,10.2,-0.0742,1.16,8.58,8.66
1020,10.2,0.269,0.918,8.57,8.62
1021,10.2,0.488,0.841,8.75,8.8
1022,10.2,0.595,0.895,8.97,9.03
1023,10.3,0.625,1.04,9.06,9.14
1024,10.3,0.664,1.26,9.0,9.11
1025,10.3,0.718,1.47,8.84,8.99
1026,10.3,0.757,1.66,8.77,8.96
1027,10.3,0.826,1.78,8.7,8.92
1028,10.3,0.965,1.87,8.72,8.97
1029,10.3,1.18,1.83,8.8,9.07
1030,10.3,1.34,1.66,8.89,9.14
1031,10.3,1.51,1.58,8.98,9.24
1032,10.3,1.67,1.56,9.07,9.35
1033,10.4,1.8,1.58,9.2,9.51
1034,10.4,1.85,1.67,9.36,9.69
1035,10.4,1.89,1.78,9.4,9.75
1036,10.4,1.94,2.0,9.36,9.77
1037,10.4,2.0,2.27,9.23,9.71
1038,10.4,2.04,2.51,9.02,9.58
1039,10.4,2.07,2.8,8.77,9.43
1040,10.4,1.99,3.15,8.72,9.48
1041,10.4,1.78,3.48,9.23,10.0
1042,10.4,1.5,3.52,10.2,10.9
1043,10.5,1.25,3.29,11.5,12.0
1044,10.5,1.11,2.88,12.8,13.2
1045,10.5,1.03,2.22,13.8,14.0
1046,10.5,1.19,1.59,13.9,14.1
1047,10.5,1.58,1.24,13.1,13.3
1048,10.5,1.98,1.28,11.6,11.8
1049,10.5,2.27,1.7,9.93,10.3
1050,10.5,2.37,2.27,8.58,9.19
1051,10.5,2.34,2.82,7.65,8.49
1052,10.5,2.27,3.34,7.18,8.23
1053,10.6,2.17,3.75,7.24,8.44
1054,10.6,2.03,3.9,7.85,9.0
1055,10.6,1.88,3.76,8.74,9.7
1056,10.6,1.82,3.5,9.61,10.4
1057,10.6,1.88,3.23,10.3,10.9
1058,10.6,1.97,2.92,10.6,11.2
1059,10.6,2.06,2.69,10.8,11.3
1060,10.6,2.17,2.53,10.9,11.4
1061,10.6,2.24,2.34,10.8,11.3
1062,10.6,2.28,2.16,10.7,11.1
1063,10.7,2.33,2.05,10.4,10.9
1064,10.7,2.36,1.93,10.1,10.6
1065,10.7,2.36,1.76,9.75,10.2
1066,10.7,2.35,1.67,9.25,9.69
1067,10.7,2.27,1.73,8.9,9.35
1068,10.7,2.07,1.8,8.64,9.06
1069,10.7,1.82,1.92,8.44,8.84
1070,10.7,1.57,2.13,8.29,8.7
1071,10.7,1.39,2.36,8.24,8.69
1072,10.7,1.27,2.45,8.1,8.56
1073,10.8,1.3,2.52,7.77,8.28
1074,10.8,1.4,2.62,7.47,8.04
1075,10.8,1.48,2.61,7.19,7.79
1076,10.8,1.58,2.64,6.95,7.6
1077,10.8,1.67,2.8,6.85,7.58
1078,10.8,1.71,2.98,6.86,7.68
1079,10.8,1.74,3.19,6.94,7.83
1080,10.8,1.77,3.36,7.18,8.13
1081,10.8,1.79,3.37,7.56,8.46
1082,10.8,1.83,3.25,7.95,8.78
1083,10.9,1.87,3.12,8.31,9.07
1084,10.9,1.94,3.02,8.63,9.35
1085,10.9,1.97,2.94,8.98,9.65
1086,10.9,1.94,2.85,9.27,9.89
1087,10.9,1.93,2.79,9.48,10.1
1088,10.9,1.91,2.77,9.65,10.2
1089,10.9,1.87,2.75,9.86,10.4
1090,10.9,1.79,2.71,10.1,10.6
1091,10.9,1.72,2.68,10.1,10.6
1092,10.9,1.66,2.75,10.0,10.5
1093,11.0,1.62,2.82,9.85,10.4
1094,11.0,1.54,2.83,9.57,10.1
1095,11.0,1.48,2.89,9.25,9.81
1096,11.0,1.41,2.98,8.98,9.57
1097,11.0,1.26,3.02,8.82,9.4
1098,11.0,1.1,3.08,8.75,9.34
1099,11.0,0.967,3.22,8.78,9.4
1100,11.0,0.838,3.34,8.81,9.46
1101,11.0,0.708,3.43,8.94,9.6
1102,11.0,0.581,3.52,9.16,9.83
1103,11.1,0.427,3.59,9.54,10.2
1104,11.1,0.286,3.53,9.95,10.6
1105,11.1,0.15,3.35,10.5,11.0
1106,11.1,0.0774,3.27,10.9,11.3
1107,11.1,0.0621,3.34,11.0,11.5
1108,11.1,0.0686,3.53,10.8,11.3
1109,11.1,0.0736,3.93,10.2,10.9
1110,11.1,0.00644,4.44,9.82,10.8
1111,11.1,-0.265,4.78,10.1,11.2
1112,11.1,-0.624,4.82,10.8,11.8
1113,11.2,-0.887,4.67,11.7,12.6
1114,11.2,-0.974,4.08,12.4,13.1
1115,11.2,-0.922,3.28,12.7,13.2
1116,11.2,-0.762,2.35,12.9,13.1
1117,11.2,-0.485,1.19,12.8,12.8
1118,11.2,-0.0805,-0.00225,12.3,12.3
1119,11.2,0.51,-1.02,11.5,11.6
1120,11.2,1.2,-1.75,10.4,10.6
1121,11.2,1.74,-2.15,9.38,9.78
1122,11.2,2.01,-2.13,8.66,9.14
1123,11.3,1.88,-1.78,8.31,8.7
1124,11.3,1.38,-1.28,7.99,8.21
1125,11.3,0.825,-0.48,7.36,7.42
1126,11.3,0.398,0.617,6.54,6.58
1127,11.3,-0.0346,1.68,5.99,6.22
1128,11.3,-0.604,2.6,5.8,6.38
1129,11.3,-1.29,3.49,5.93,7.0
1130,11.3,-1.98,4.43,6.33,7.98
1131,11.3,-2.47,5.32,7.02,9.15
1132,11.3,-2.71,5.76,8.11,10.3
1133,11.4,-2.77,5.42,9.38,11.2
1134,11.4,-2.57,4.55,10.3,11.6
1135,11.4,-2.09,3.57,10.7,11.5
1136,11.4,-1.54,2.6,10.5,10.9
1137,11.4,-1.04,1.68,9.5,9.7
1138,11.4,-0.569,1.1,8.05,8.14
1139,11.4,-0.0656,0.973,6.65,6.72
1140,11.4,0.338,0.864,5.92,5.99
1141,11.4,0.461,0.645,6.21,6.26
1142,11.4,0.325,0.721,7.62,7.66
1143,11.5,-0.00314,0.974,9.68,9.73
1144,11.5,-0.256,0.975,11.2,11.2
1145,11.5,-0.258,0.937,11.7,11.7
1146,11.5,-0.0675,1.01,11.3,11.3
1147,11.5,0.14,1.18,10.4,10.5
1148,11.5,0.226,1.3,9.69,9.78
1149,11.5,0.104,1.41,9.3,9.4
1150,11.5,-0.116,1.69,9.29,9.45
1151,11.5,-0.357,1.97,9.62,9.83
1152,11.5,-0.544,2.11,10.1,10.4
1153,11.6,-0.609,2.16,10.6,10.8
1154,11.6,-0.62,2.06,10.8,11.0
1155,11.6,-0.555,2.0,10.8,11.0
1156,11.6,-0.458,1.98,10.7,10.9
1157,11.6,-0.378,1.98,10.6,10.8
1158,11.6,-0.291,1.98,10.4,10.6
1159,11.6,-0.193,1.97,10.2,10.3
1160,11.6,-0.0982,1.93,9.94,10.1
1161,11.6,0.0114,1.94,9.73,9.92
1162,11.6,0.115,1.96,9.59,9.79
1163,11.7,0.108,1.97,9.58,9.78
1164,11.7,0.0124,2.02,9.73,9.94
1165,11.7,-0.0449,2.13,9.94,10.2
1166,11.7,-0.114,2.09,10.2,10.4
1167,11.7,-0.187,2.03,10.5,10.7
1168,11.7,-0.193,2.11,10.8,11.0
1169,11.7,-0.144,2.25,11.0,11.2
1170,11.7,-0.0962,2.38,10.9,11.2
1171,11.7,-0.0723,2.51,10.7,11.0
1172,11.7,-0.148,2.58,10.6,10.9
1173,11.8,-0.404,2.72,10.8,11.1
1174,11.8,-0.752,2.96,11.5,11.9
1175,11.8,-1.05,2.97,12.6,13.0
1176,11.8,-1.24,2.62,13.9,14.2
1177,11.8,-1.32,2.14,15.1,15.3
1178,11.8,-1.29,1.32,16.0,16.1
1179,11.8,-1.18,0.364,16.1,16.2
1180,11.8,-0.886,-0.384,15.7,15.7
1181,11.8,-0.436,-0.707,14.7,14.8
1182,11.8,0.0829,-0.718,13.5,13.5
1183,11.9,0.363,-0.712,12.1,12.1
1184,11.9,0.49,-0.654,10.7,10.8
1185,11.9,0.549,-0.434,9.42,9.45
1186,11.9,0.585,-0.0115,8.36,8.38
1187,11.9,0.605,0.436,7.62,7.66
1188,11.9,0.615,0.742,7.16,7.22
1189,11.9,0.63,0.935,6.93,7.02
1190,11.9,0.69,1.11,6.78,6.91
1191,11.9,0.806,1.28,6.61,6.78
1192,11.9,0.933,1.39,6.49,6.7
1193,12.0,1.01,1.41,6.45,6.68
1194,12.0,1.01,1.42,6.67,6.89
1195,12.0,0.972,1.42,7.1,7.3
1196,12.0,0.846,1.45,7.71,7.89
1197,12.0,0.616,1.51,8.48,8.64
1198,12.0,0.342,1.47,9.3,9.42
1199,12.0,0.119,1.37,9.98,10.1
1200,12.0,0.0138,1.25,10.5,10.6
1201,12.0,-0.00733,1.12,11.0,11.1
1202,12.0,0.0389,0.954,11.5,11.5
1203,12.1,0.133,0.774,11.7,11.7
1204,12.1,0.217,0.63,11.4,11.4
1205,12.1,0.29,0.633,10.8,10.8
1206,12.1,0.355,0.789,10.0,10.1
1207,12.1,0.366,1.0,9.42,9.48
1208,12.1,0.343,1.17,8.87,8.95
1209,12.1,0.357,1.3,8.33,8.44
1210,12.1,0.427,1.42,7.81,7.95
1211,12.1,0.549,1.51,7.34,7.52
1212,12.1,0.635,1.58,7.05,7.25
1213,12.2,0.639,1.65,6.91,7.13
1214,12.2,0.596,1.73,6.89,7.13
1215,12.2,0.558,1.84,6.89,7.15
1216,12.2,0.488,2.01,6.9,7.2
1217,12.2,0.394,2.14,6.97,7.3
1218,12.2,0.321,2.25,7.14,7.49
1219,12.2,0.244,2.35,7.4,7.77
1220,12.2,0.188,2.49,7.69,8.09
1221,12.2,0.135,2.59,7.98,8.39
1222,12.2,0.0974,2.67,8.13,8.56
1223,12.3,0.105,2.78,8.23,8.69
1224,12.3,0.0861,2.94,8.32,8.83
1225,12.3,0.0575,3.12,8.4,8.96
1226,12.3,-0.0466,3.28,8.63,9.23
1227,12.3,-0.195,3.42,9.05,9.68
1228,12.3,-0.357,3.59,9.72,10.4
1229,12.3,-0.499,3.79,10.5,11.2
1230,12.3,-0.586,4.05,11.2,11.9
1231,12.3,-0.681,4.16,11.8,12.5
1232,12.3,-0.781,4.17,12.3,13.0
1233,12.4,-0.851,4.13,12.7,13.4
1234,12.4,-0.985,3.67,13.1,13.6
1235,12.4,-1.16,2.91,13.4,13.8
1236,12.4,-1.45,2.06,13.9,14.2
1237,12.4,-1.79,1.26,14.4,14.6
1238,12.4,-1.91,0.575,14.7,14.8
1239,12.4,-1.71,-0.144,14.5,14.6
1240,12.4,-1.29,-0.82,13.7,13.8
1241,12.4,-0.761,-1.16,12.5,12.6
1242,12.4,-0.425,-1.22,11.2,11.3
1243,12.5,-0.262,-0.943,9.64,9.69
1244,12.5,-0.102,-0.406,7.98,7.99
1245,12.5,0.0254,0.2,6.51,6.51
1246,12.5,0.105,0.786,5.45,5.5
1247,12.5,0.0837,1.37,4.93,5.12
1248,12.5,-0.146,1.98,4.89,5.28
1249,12.5,-0.667,2.53,5.3,5.92
1250,12.5,-1.37,2.95,5.85,6.69
1251,12.5,-2.08,3.44,6.27,7.44
1252,12.5,-2.73,4.13,6.57,8.22
1253,12.6,-3.38,4.82,6.88,9.06
1254,12.6,-3.81,5.24,7.43,9.86
1255,12.6,-3.92,5.24,8.32,10.6
1256,12.6,-3.8,4.79,9.5,11.3
1257,12.6,-3.66,4.09,10.8,12.1
1258,12.6,-3.43,3.39,12.0,12.9
1259,12.6,-3.15,2.78,12.8,13.5
1260,12.6,-2.71,2.25,12.9,13.4
1261,12.6,-2.04,1.88,12.1,12.4
1262,12.6,-1.24,1.71,10.6,10.9
1263,12.7,-0.591,1.61,9.19,9.35
1264,12.7,-0.135,1.55,7.87,8.03
1265,12.7,0.208,1.67,6.88,7.08
1266,12.7,0.353,1.92,6.31,6.6
1267,12.7,0.287,2.21,6.22,6.61
1268,12.7,0.0677,2.52,6.5,6.97
1269,12.7,-0.14,2.79,6.94,7.49
1270,12.7,-0.271,3.05,7.38,7.99
1271,12.7,-0.368,3.21,7.69,8.34
1272,12.7,-0.431,3.33,7.88,8.56
1273,12.8,-0.487,3.42,7.94,8.66
1274,12.8,-0.552,3.46,8.02,8.75
1275,12.8,-0.634,3.52,8.11,8.86
1276,12.8,-0.69,3.59,8.27,9.04
1277,12.8,-0.722,3.54,8.56,9.29
1278,12.8,-0.711,3.4,8.87,9.52
1279,12.8,-0.607,3.29,9.13,9.73
1280,12.8,-0.453,3.18,9.43,9.96
1281,12.8,-0.338,2.99,9.71,10.2
1282,12.8,-0.253,2.85,9.94,10.3
1283,12.9,-0.182,2.88,10.2,10.6
1284,12.9,-0.143,3.02,10.3,10.7
1285,12.9,-0.141,3.15,10.3,10.8
1286,12.9,-0.107,3.25,10.2,10.7
1287,12.9,-0.0989,3.34,10.0,10.6
1288,12.9,-0.0865,3.49,9.96,10.5
1289,12.9,-0.118,3.67,10.1,10.7
1290,12.9,-0.11,3.93,10.3,11.0
1291,12.9,-0.0198,4.34,10.4,11.3
1292,12.9,0.0352,4.54,10.4,11.3
1293,13.0,0.0545,4.68,10.2,11.2
1294,13.0,-0.147,4.73,10.1,11.2
1295,13.0,-0.486,4.79,10.4,11.5
1296,13.0,-0.845,4.82,11.3,12.3
1297,13.0,-1.07,4.52,12.4,13.3
1298,13.0,-1.27,3.93,13.8,14.4
1299,13.0,-1.39,3.1,15.1,15.5
1300,13.0,-1.36,2.23,15.7,15.9
1301,13.0,-1.15,1.52,15.6,15.7
1302,13.0,-0.737,1.11,14.7,14.7
1303,13.1,-0.267,0.981,13.3,13.3
1304,13.1,-0.00614,0.975,12.0,12.0
1305,13.1,0.0977,1.0,10.6,10.6
1306,13.1,0.182,1.27,9.34,9.43
1307,13.1,0.209,1.67,8.27,8.43
1308,13.1,0.225,1.99,7.4,7.66
1309,13.1,0.296,2.27,6.69,7.07
1310,13.1,0.384,2.53,6.3,6.8
1311,13.1,0.393,2.75,6.31,6.9
1312,13.1,0.333,2.92,6.49,7.12
1313,13.2,0.229,3.18,6.8,7.51
1314,13.2,0.0873,3.41,7.35,8.11
1315,13.2,-0.162,3.48,8.1,8.82
1316,13.2,-0.376,3.45,8.87,9.53
1317,13.2,-0.579,3.45,9.7,10.3
1318,13.2,-0.9,3.33,10.6,11.2
1319,13.2,-1.21,3.15,11.6,12.1
1320,13.2,-1.4,2.99,12.5,12.9
1321,13.2,-1.51,2.82,13.1,13.4
1322,13.2,-1.54,2.63,13.3,13.6
1323,13.3,-1.48,2.44,13.0,13.3
1324,13.3,-1.34,2.39,12.3,12.6
1325,13.3,-1.19,2.4,11.3,11.6
1326,13.3,-1.07,2.48,10.3,10.6
1327,13.3,-0.997,2.65,9.39,9.81
1328,13.3,-0.913,2.74,8.52,9.0
1329,13.3,-0.802,2.75,7.69,8.2
1330,13.3,-0.665,2.77,7.0,7.56
1331,13.3,-0.534,2.81,6.4,7.01
1332,13.3,-0.408,2.82,5.87,6.53
1333,13.4,-0.3,2.8,5.46,6.14
1334,13.4,-0.19,2.82,5.19,5.92
1335,13.4,-0.12,2.86,5.05,5.81
1336,13.4,-0.0784,2.92,5.06,5.84
1337,13.4,-0.11,3.02,5.22,6.03
1338,13.4,-0.173,3.12,5.45,6.28
1339,13.4,-0.19,3.13,5.66,6.47
1340,13.4,-0.216,3.16,5.85,6.66
1341,13.4,-0.205,3.21,6.05,6.85
1342,13.4,-0.211,3.29,6.18,7.0
1343,13.5,-0.258,3.4,6.21,7.09
1344,13.5,-0.345,3.52,6.24,7.18
1345,13.5,-0.444,3.69,6.34,7.34
1346,13.5,-0.579,3.78,6.54,7.58
1347,13.5,-0.756,3.8,6.92,7.93
1348,13.5,-0.953,3.8,7.29,8.28
1349,13.5,-1.11,3.8,7.62,8.59
1350,13.5,-1.3,3.81,7.97,8.93
1351,13.5,-1.36,3.97,8.28,9.29
1352,13.5,-1.21,4.38,8.52,9.66
1353,13.6,-1.04,4.8,8.56,9.87
1354,13.6,-1.1,5.05,8.72,10.1
1355,13.6,-1.35,5.1,9.01,10.4
1356,13.6,-1.64,5.26,9.45,10.9
1357,13.6,-1.94,5.21,9.94,11.4
1358,13.6,-2.31,4.88,10.6,11.9
1359,13.6,-2.69,4.3,11.3,12.4
1360,13.6,-3.0,3.43,12.0,12.9
1361,13.6,-3.21,2.51,12.9,13.6
1362,13.6,-3.24,1.82,13.8,14.3
1363,13.7,-3.06,1.42,14.3,14.7
1364,13.7,-2.65,1.15,14.2,14.5
1365,13.7,-2.04,1.06,13.4,13.6
1366,13.7,-1.37,1.18,12.0,12.1
1367,13.7,-0.908,1.37,10.5,10.6
1368,13.7,-0.592,1.69,8.97,9.14
1369,13.7,-0.363,2.14,7.82,8.12
1370,13.7,-0.307,2.61,7.2,7.67
1371,13.7,-0.478,3.0,6.94,7.57
1372,13.7,-0.88,3.46,7.0,7.86
1373,13.8,-1.41,4.04,7.44,8.58
1374,13.8,-1.97,4.47,8.08,9.44
1375,13.8,-2.43,4.81,8.76,10.3
1376,13.8,-2.76,5.04,9.36,11.0
1377,13.8,-3.0,5.03,9.79,11.4
1378,13.8,-3.08,4.76,10.0,11.5
1379,13.8,-3.02,4.35,10.1,11.4
1380,13.8,-2.86,3.91,10.1,11.2
1381,13.8,-2.62,3.5,10.0,10.9
1382,13.8,-2.3,3.13,9.98,10.7
1383,13.9,-1.92,2.81,9.66,10.2
1384,13.9,-1.45,2.62,9.11,9.59
1385,13.9,-0.938,2.54,8.43,8.85
1386,13.9,-0.488,2.46,7.71,8.1
1387,13.9,-0.0989,2.35,7.04,7.42
1388,13.9,0.196,2.29,6.58,6.97
1389,13.9,0.388,2.34,6.3,6.73
1390,13.9,0.463,2.46,6.21,6.69
1391,13.9,0.35,2.58,6.34,6.85
1392,13.9,0.0472,2.72,6.61,7.15
1393,14.0,-0.292,2.96,7.02,7.63
1394,14.0,-0.547,3.2,7.38,8.06
1395,14.0,-0.729,3.33,7.61,8.34
1396,14.0,-0.862,3.39,7.83,8.57
1397,14.0,-0.999,3.41,8.03,8.78
1398,14.0,-1.09,3.43,8.18,8.94
1399,14.0,-1.15,3.49,8.34,9.11
1400,14.0,-1.17,3.57,8.5,9.29
1401,14.0,-1.15,3.56,8.62,9.4
1402,14.1,-1.06,3.52,8.76,9.5
1403,14.1,-0.872,3.5,8.92,9.62
1404,14.1,-0.671,3.51,9.1,9.78
1405,14.1,-0.508,3.52,9.35,10.0
1406,14.1,-0.364,3.53,9.48,10.1
1407,14.1,-0.295,3.66,9.61,10.3
1408,14.1,-0.248,3.83,9.74,10.5
1409,14.1,-0.0898,4.12,9.93,10.7
1410,14.1,0.13,4.48,10.1,11.0
1411,14.1,0.214,4.64,10.1,11.1
1412,14.2,-0.0647,4.48,10.1,11.1
1413,14.2,-0.617,4.2,10.9,11.7
1414,14.2,-1.02,4.05,12.2,12.9
1415,14.2,-1.14,4.07,13.7,14.3
1416,14.2,-1.26,3.91,15.0,15.5
1417,14.2,-1.42,3.49,15.9,16.4
1418,14.2,-1.55,2.81,16.4,16.7
1419,14.2,-1.55,2.14,16.2,16.4
1420,14.2,-1.4,1.83,15.6,15.8
1421,14.2,-1.21,1.8,15.0,15.1
1422,14.3,-1.09,1.74,14.2,14.3
1423,14.3,-0.933,1.64,13.1,13.2
1424,14.3,-0.721,1.52,11.7,11.8
1425,14.3,-0.41,1.48,10.2,10.3
1426,14.3,-0.122,1.46,8.84,8.96
1427,14.3,0.185,1.54,7.55,7.71
1428,14.3,0.479,1.73,6.38,6.63
1429,14.3,0.723,1.99,5.5,5.89
1430,14.3,0.911,2.28,4.97,5.54
1431,14.3,1.08,2.66,4.7,5.51
1432,14.4,1.25,3.07,4.63,5.69
1433,14.4,1.32,3.34,4.76,5.96
1434,14.4,1.26,3.38,5.12,6.26
1435,14.4,1.07,3.29,5.67,6.64
1436,14.4,0.777,3.13,6.42,7.19
1437,14.4,0.419,2.93,7.26,7.84
1438,14.4,-0.00479,2.85,8.39,8.86
1439,14.4,-0.555,2.94,9.94,10.4
1440,14.4,-1.04,2.84,11.7,12.1
1441,14.4,-1.51,2.6,13.5,13.8
1442,14.5,-1.89,2.28,15.0,15.3
1443,14.5,-2.09,1.86,15.7,15.9
1444,14.5,-2.11,1.5,15.4,15.6
1445,14.5,-1.89,1.37,14.1,14.3
1446,14.5,-1.56,1.49,12.4,12.6
1447,14.5,-1.46,1.67,10.8,11.0
1448,14.5,-1.4,1.96,9.52,9.83
1449,14.5,-1.31,2.3,8.49,8.89
1450,14.5,-1.18,2.51,7.66,8.15
1451,14.5,-1.04,2.61,7.01,7.55
1452,14.6,-0.888,2.68,6.55,7.13
1453,14.6,-0.739,2.71,6.24,6.84
1454,14.6,-0.589,2.64,6.07,6.64
1455,14.6,-0.495,2.53,6.02,6.55
1456,14.6,-0.461,2.47,6.09,6.59
1457,14.6,-0.467,2.53,6.31,6.82
1458,14.6,-0.573,2.57,6.73,7.22
1459,14.6,-0.754,2.63,7.28,7.77
1460,14.6,-0.951,2.77,7.85,8.38
1461,14.6,-1.11,2.9,8.4,8.95
1462,14.7,-1.18,3.06,8.82,9.41
1463,14.7,-1.15,3.45,9.03,9.74
1464,14.7,-1.06,4.01,9.0,9.91
1465,14.7,-1.18,4.51,8.72,9.89
1466,14.7,-1.66,4.86,8.5,9.93
1467,14.7,-2.37,5.11,8.64,10.3
1468,14.7,-2.95,5.17,9.45,11.2
1469,14.7,-3.32,4.76,11.0,12.4
1470,14.7,-3.54,3.84,12.7,13.8
1471,14.7,-3.51,2.89,14.0,14.7
1472,14.8,-3.17,2.17,14.1,14.6
1473,14.8,-2.44,1.69,12.9,13.2
1474,14.8,-1.52,1.53,11.0,11.2
1475,14.8,-0.795,1.44,9.23,9.37
1476,14.8,-0.222,1.35,7.88,8.0
1477,14.8,0.276,1.29,7.01,7.14
1478,14.8,0.705,1.2,6.75,6.89
1479,14.8,0.926,0.865,7.09,7.2
1480,14.8,0.899,0.172,7.8,7.86
1481,14.8,0.765,-0.642,8.19,8.25
1482,14.9,0.571,-1.08,8.08,8.18
1483,14.9,0.117,-0.942,7.86,7.91
1484,14.9,-0.578,-0.173,7.81,7.84
1485,14.9,-1.52,0.909,8.1,8.29
1486,14.9,-2.51,1.99,8.48,9.07
1487,14.9,-3.27,3.01,9.05,10.1
1488,14.9,-3.73,3.78,9.91,11.2
1489,14.9,-3.79,4.12,10.9,12.3
1490,14.9,-3.75,4.05,12.1,13.3
1491,14.9,-3.67,3.57,13.1,14.1
1492,15.0,-3.36,3.02,13.6,14.3
1493,15.0,-2.89,2.52,13.4,13.9
1494,15.0,-2.31,2.03,12.6,13.0
1495,15.0,-1.79,1.63,11.5,11.8
1496,15.0,-1.36,1.38,10.5,10.6
1497,15.0,-1.17,1.24,9.55,9.7
1498,15.0,-1.11,1.28,8.81,8.97
1499,15.0,-1.14,1.51,8.24,8.46
1500,15.0,-1.24,1.81,7.94,8.24
1501,15.0,-1.41,2.08,7.87,8.26
1502,15.1,-1.58,2.35,7.94,8.43
1503,15.1,-1.73,2.59,8.07,8.65
1504,15.1,-1.82,2.79,8.14,8.8
1505,15.1,-1.88,2.95,8.19,8.91
1506,15.1,-1.95,3.04,8.28,9.03
1507,15.1,-1.99,3.1,8.35,9.12
1508,15.1,-2.02,3.22,8.45,9.27
1509,15.1,-2.02,3.31,8.6,9.43
1510,15.1,-2.08,3.28,8.92,9.73
1511,15.1,-2.07,3.16,9.13,9.88
1512,15.2,-1.98,3.09,9.34,10.0
1513,15.2,-1.87,2.92,9.61,10.2
1514,15.2,-1.77,2.77,9.95,10.5
1515,15.2,-1.63,2.67,10.2,10.6
1516,15.2,-1.46,2.54,10.3,10.7
1517,15.2,-1.26,2.37,10.4,10.7
1518,15.2,-1.15,2.09,10.5,10.7
1519,15.2,-1.09,1.75,10.5,10.7
1520,15.2,-1.0,1.49,10.4,10.5
1521,15.2,-0.911,1.34,10.2,10.4
1522,15.3,-0.854,1.14,10.3,10.4
1523,15.3,-0.915,0.835,10.5,10.6
1524,15.3,-0.976,0.609,10.6,10.7
1525,15.3,-1.04,0.508,10.7,10.7
1526,15.3,-1.16,0.386,10.6,10.7
1527,15.3,-1.32,0.247,10.4,10.5
1528,15.3,-1.48,0.2,10.1,10.2
1529,15.3,-1.66,0.262,9.91,10.1
1530,15.3,-1.76,0.379,9.58,9.74
1531,15.3,-1.7,0.553,9.1,9.27
1532,15.4,-1.52,0.787,8.7,8.86
1533,15.4,-1.27,1.01,8.28,8.44
1534,15.4,-1.04,1.05,7.98,8.12
1535,15.4,-0.708,0.98,7.46,7.56
1536,15.4,-0.322,0.913,7.11,7.17
1537,15.4,-0.0816,0.769,6.89,6.93
1538,15.4,0.0687,0.745,6.68,6.72
1539,15.4,0.219,1.01,6.61,6.69
1540,15.4,0.292,1.44,6.68,6.84
1541,15.4,0.244,1.9,6.85,7.11
1542,15.5,0.142,2.45,7.2,7.6
1543,15.5,-0.0693,2.98,7.84,8.39
1544,15.5,-0.514,3.53,8.99,9.67
1545,15.5,-0.926,4.18,10.5,11.4
1546,15.5,-1.31,4.54,12.4,13.3
1547,15.5,-1.72,4.31,14.3,15.0
1548,15.5,-1.94,3.82,15.6,16.2
1549,15.5,-1.99,3.28,16.1,16.6
1550,15.5,-1.83,2.78,15.8,16.1
1551,15.5,-1.57,2.48,14.7,15.0
1552,15.6,-1.46,2.23,13.7,13.9
1553,15.6,-1.47,2.02,12.8,13.0
1554,15.6,-1.43,2.09,11.9,12.2
1555,15.6,-1.31,2.26,11.4,11.7
1556,15.6,-1.2,2.26,11.1,11.4
1557,15.6,-1.06,2.17,10.8,11.0
1558,15.6,-0.867,2.03,10.3,10.5
1559,15.6,-0.647,1.97,9.69,9.91
1560,15.6,-0.4,1.97,8.94,9.17
1561,15.6,-0.201,2.04,8.2,8.45
1562,15.7,-0.00269,2.25,7.57,7.89
1563,15.7,0.19,2.49,7.09,7.52
1564,15.7,0.288,2.81,6.81,7.38
1565,15.7,0.291,3.07,6.71,7.39
1566,15.7,0.241,3.31,6.79,7.56
1567,15.7,0.131,3.47,6.96,7.78
1568,15.7,-0.0416,3.48,7.18,7.98
1569,15.7,-0.209,3.38,7.65,8.37
1570,15.7,-0.377,3.15,8.52,9.09
1571,15.7,-0.565,2.72,9.52,9.91
1572,15.8,-0.71,2.26,10.2,10.5
1573,15.8,-0.817,1.99,10.7,10.9
1574,15.8,-0.941,1.88,10.9,11.1
1575,15.8,-1.09,1.87,10.9,11.1
1576,15.8,-1.29,1.9,10.9,11.1
1577,15.8,-1.54,1.93,10.9,11.2
1578,15.8,-1.76,1.93,11.0,11.3
1579,15.8,-1.91,1.81,11.1,11.4
1580,15.8,-1.94,1.67,11.0,11.2
1581,15.8,-1.85,1.58,10.7,10.9
1582,15.9,-1.74,1.53,10.2,10.4
1583,15.9,-1.61,1.62,9.48,9.75
1584,15.9,-1.52,1.79,8.76,9.07
1585,15.9,-1.64,1.96,8.19,8.58
1586,15.9,-1.95,2.11,7.88,8.39
1587,15.9,-2.34,2.18,7.93,8.55
1588,15.9,-2.66,2.25,8.33,9.03
1589,15.9,-2.79,2.35,8.92,9.63
1590,15.9,-2.75,2.4,9.44,10.1
1591,15.9,-2.49,2.29,9.62,10.2
1592,16.0,-2.01,2.03,9.27,9.7
1593,16.0,-1.47,1.82,8.62,8.93
1594,16.0,-1.06,1.71,7.99,8.24
1595,16.0,-0.89,1.7,7.53,7.77
1596,16.0,-0.836,1.75,7.21,7.46
1597,16.0,-0.834,1.85,6.94,7.23
1598,16.0,-0.92,1.97,7.07,7.39
1599,16.0,-1.21,1.94,7.73,8.06
1600,16.0,-1.6,1.89,8.74,9.08
1601,16.0,-1.92,1.96,9.85,10.2
1602,16.1,-2.18,1.98,10.8,11.2
1603,16.1,-2.46,1.76,11.4,11.8
1604,16.1,-2.63,1.61,11.6,12.0
1605,16.1,-2.64,1.6,11.4,11.9
1606,16.1,-2.55,1.65,11.0,11.4
1607,16.1,-2.42,1.74,10.4,10.8
1608,16.1,-2.31,1.86,9.81,10.2
1609,16.1,-2.26,1.98,9.29,9.76
1610,16.1,-2.23,2.11,8.85,9.37
1611,16.1,-2.22,2.22,8.56,9.12
1612,16.2,-2.24,2.27,8.44,9.03
1613,16.2,-2.32,2.28,8.49,9.09
1614,16.2,-2.39,2.23,8.59,9.19
1615,16.2,-2.45,2.17,8.66,9.26
1616,16.2,-2.48,2.04,8.83,9.4
1617,16.2,-2.57,1.83,9.15,9.68
1618,16.2,-2.7,1.57,9.52,10.0
1619,16.2,-2.84,1.35,9.93,10.4
1620,16.2,-2.94,1.25,10.4,10.9
1621,16.2,-2.98,1.22,10.8,11.2
1622,16.3,-2.99,1.17,10.9,11.4
1623,16.3,-2.89,1.21,10.8,11.3
1624,16.3,-2.67,1.39,10.4,10.8
1625,16.3,-2.42,1.63,9.67,10.1
1626,16.3,-2.25,1.84,9.02,9.47
1627,16.3,-2.13,2.09,8.43,8.95
1628,16.3,-2.07,2.42,7.95,8.56
1629,16.3,-2.03,2.72,7.66,8.38
1630,16.3,-1.99,2.94,7.54,8.33
1631,16.3,-1.95,3.15,7.64,8.49
1632,16.4,-1.87,3.28,7.79,8.66
1633,16.4,-1.81,3.33,7.86,8.72
1634,16.4,-1.74,3.33,7.83,8.69
1635,16.4,-1.62,3.39,7.84,8.69
1636,16.4,-1.55,3.4,8.02,8.84
1637,16.4,-1.49,3.33,8.29,9.06
1638,16.4,-1.42,3.25,8.61,9.31
1639,16.4,-1.37,3.18,8.9,9.55
1640,16.4,-1.31,3.15,9.19,9.8
1641,16.4,-1.25,3.09,9.36,9.93
1642,16.5,-1.21,3.01,9.39,9.94
1643,16.5,-1.14,3.01,9.44,9.98
1644,16.5,-1.09,3.02,9.56,10.1
1645,16.5,-1.08,3.0,9.71,10.2
1646,16.5,-0.985,3.04,9.81,10.3
1647,16.5,-0.846,3.12,9.83,10.4
1648,16.5,-0.737,3.1,9.79,10.3
1649,16.5,-0.613,3.11,9.75,10.2
1650,16.5,-0.489,3.12,9.76,10.3
1651,16.5,-0.442,3.1,9.9,10.4
1652,16.6,-0.464,3.17,10.1,10.6
1653,16.6,-0.513,3.31,10.4,11.0
1654,16.6,-0.691,3.37,10.6,11.2
1655,16.6,-1.08,3.29,10.9,11.4
1656,16.6,-1.48,3.23,11.5,12.1
1657,16.6,-1.76,3.01,12.8,13.3
1658,16.6,-1.92,2.39,14.3,14.6
1659,16.6,-1.82,1.69,15.5,15.7
1660,16.6,-1.63,1.07,16.1,16.3
1661,16.6,-1.36,0.559,16.0,16.1
1662,16.7,-0.994,0.352,15.1,15.1
1663,16.7,-0.712,0.422,13.8,13.9
1664,16.7,-0.639,0.535,12.9,12.9
1665,16.7,-0.658,0.812,12.3,12.3
1666,16.7,-0.618,1.04,11.7,11.8
1667,16.7,-0.541,1.06,11.1,11.2
1668,16.7,-0.388,1.05,10.4,10.4
1669,16.7,-0.179,1.04,9.62,9.67
1670,16.7,0.0653,1.04,8.83,8.89
1671,16.7,0.269,1.08,8.06,8.14
1672,16.8,0.447,1.22,7.44,7.56
1673,16.8,0.545,1.34,7.0,7.15
1674,16.8,0.59,1.53,6.69,6.89
1675,16.8,0.691,1.8,6.46,6.75
1676,16.8,0.826,2.06,6.36,6.74
1677,16.8,0.91,2.22,6.54,6.97
1678,16.8,0.899,2.18,6.95,7.34
1679,16.8,0.846,2.11,7.45,7.79
1680,16.8,0.802,2.11,8.04,8.36
1681,16.8,0.707,2.05,8.62,8.89
1682,16.9,0.583,1.94,9.12,9.34
1683,16.9,0.439,1.88,9.55,9.74
1684,16.9,0.253,1.91,9.91,10.1
1685,16.9,0.018,1.93,10.3,10.5
1686,16.9,-0.26,1.98,10.7,10.9
1687,16.9,-0.422,2.05,11.0,11.2
1688,16.9,-0.499,2.07,11.1,11.3
1689,16.9,-0.507,2.05,11.0,11.2
1690,16.9,-0.455,2.04,10.5,10.7
1691,16.9,-0.328,2.12,9.67,9.91
1692,17.0,-0.193,2.28,8.83,9.12
1693,17.0,-0.112,2.43,8.1,8.46
1694,17.0,-0.107,2.56,7.65,8.06
1695,17.0,-0.133,2.7,7.43,7.91
1696,17.0,-0.153,2.72,7.38,7.87
1697,17.0,-0.164,2.6,7.42,7.87
1698,17.0,-0.156,2.46,7.56,7.95
1699,17.0,-0.184,2.33,7.75,8.09
1700,17.0,-0.27,2.25,7.86,8.18
1701,17.0,-0.396,2.29,8.02,8.35
1702,17.1,-0.556,2.39,8.36,8.72
1703,17.1,-0.755,2.41,8.78,9.13
1704,17.1,-0.867,2.38,9.02,9.37
1705,17.1,-0.812,2.41,8.99,9.34
1706,17.1,-0.688,2.38,8.78,9.13
1707,17.1,-0.601,2.34,8.54,8.88
1708,17.1,-0.553,2.35,8.35,8.69
1709,17.1,-0.531,2.46,8.28,8.66
1710,17.1,-0.536,2.54,8.35,8.75
1711,17.1,-0.645,2.47,8.55,8.92
1712,17.2,-0.78,2.39,8.83,9.18
1713,17.2,-0.896,2.43,9.04,9.4
1714,17.2,-1.0,2.5,9.17,9.55
1715,17.2,-1.08,2.71,9.32,9.77
1716,17.2,-1.07,3.09,9.38,9.93
1717,17.2,-1.05,3.49,9.29,9.98
1718,17.2,-1.17,3.78,9.16,9.98
1719,17.2,-1.53,4.17,9.27,10.3
1720,17.2,-2.04,4.59,9.71,10.9
1721,17.2,-2.48,4.72,10.8,12.0
1722,17.3,-2.59,4.07,12.2,13.1
1723,17.3,-2.56,2.76,13.7,14.3
1724,17.3,-2.44,1.3,15.3,15.5
1725,17.3,-2.21,-0.1,16.2,16.4
1726,17.3,-1.63,-1.04,15.9,16.0
1727,17.3,-0.873,-1.64,14.5,14.6
1728,17.3,-0.153,-1.63,12.6,12.7
1729,17.3,0.223,-1.29,10.7,10.8
1730,17.3,0.361,-0.643,9.0,9.03
1731,17.3,0.347,0.228,7.57,7.58
1732,17.4,0.223,1.11,6.66,6.75
1733,17.4,0.0639,1.8,6.23,6.49
1734,17.4,-0.227,2.32,6.32,6.73
1735,17.4,-0.686,2.71,6.67,7.23
1736,17.4,-1.21,3.12,6.95,7.71
1737,17.4,-1.61,3.53,7.0,8.0
1738,17.4,-1.91,3.87,7.07,8.28
1739,17.4,-2.19,4.09,7.44,8.77
1740,17.4,-2.42,4.2,7.97,9.33
1741,17.4,-2.54,4.22,8.54,9.86
1742,17.5,-2.51,4.11,9.25,10.4
1743,17.5,-2.34,3.77,9.9,10.9
1744,17.5,-1.97,3.23,10.3,11.0
1745,17.5,-1.49,2.59,10.4,10.8
1746,17.5,-0.935,2.0,10.3,10.6
1747,17.5,-0.4,1.55,10.2,10.3
1748,17.5,0.016,1.19,9.94,10.0
1749,17.5,0.314,0.933,9.54,9.59
1750,17.5,0.48,0.928,9.03,9.09
1751,17.5,0.483,1.15,8.53,8.62
1752,17.6,0.381,1.52,8.13,8.28
1753,17.6,0.135,1.92,7.9,8.13
1754,17.6,-0.149,2.32,7.81,8.15
1755,17.6,-0.386,2.64,7.81,8.26
1756,17.6,-0.581,2.86,7.9,8.42
1757,17.6,-0.745,3.01,7.98,8.56
1758,17.6,-0.884,3.15,8.05,8.69
1759,17.6,-1.01,3.22,8.17,8.84
1760,17.6,-1.1,3.19,8.3,8.96
1761,17.6,-1.14,3.14,8.5,9.14
1762,17.7,-1.13,3.05,8.75,9.34
1763,17.7,-1.17,2.84,9.02,9.53
1764,17.7,-1.19,2.63,9.4,9.83
1765,17.7,-1.18,2.51,9.85,10.2
1766,17.7,-1.18,2.42,10.3,10.6
1767,17.7,-1.18,2.36,10.6,10.9
1768,17.7,-1.14,2.38,10.6,11.0
1769,17.7,-1.08,2.45,10.5,10.8
1770,17.7,-1.02,2.52,10.1,10.5
1771,17.7,-0.956,2.67,9.64,10.1
1772,17.8,-0.88,2.83,9.36,9.82
1773,17.8,-0.871,2.91,9.32,9.8
1774,17.8,-0.844,3.07,9.47,9.99
1775,17.8,-0.738,3.35,9.61,10.2
1776,17.8,-0.605,3.65,9.7,10.4
1777,17.8,-0.644,3.83,9.68,10.4
1778,17.8,-0.967,3.89,9.61,10.4
1779,17.8,-1.53,4.12,9.76,10.7
1780,17.8,-2.1,4.51,10.7,11.8
1781,17.8,-2.43,4.28,12.3,13.3
1782,17.9,-2.45,3.4,14.0,14.6
1783,17.9,-2.4,2.52,15.4,15.8
1784,17.9,-2.31,1.45,16.4,16.6
1785,17.9,-2.09,0.684,16.5,16.6
1786,17.9,-1.73,0.301,16.1,16.2
1787,17.9,-1.39,0.192,15.2,15.3
1788,17.9,-1.16,0.281,14.2,14.3
1789,17.9,-1.06,0.475,13.1,13.2
1790,17.9,-0.953,0.709,11.8,11.9
1791,17.9,-0.747,0.944,10.3,10.4
1792,18.0,-0.523,1.13,8.93,9.02
1793,18.0,-0.326,1.32,7.68,7.8
1794,18.0,-0.116,1.57,6.73,6.91
1795,18.0,0.156,1.82,6.07,6.33
1796,18.0,0.384,1.98,5.63,5.98
1797,18.0,0.592,2.07,5.37,5.79
1798,18.0,0.767,2.24,5.32,5.83
1799,18.0,0.874,2.39,5.42,5.99
1800,18.0,0.874,2.5,5.74,6.32
1801,18.0,0.739,2.45,6.3,6.8
1802,18.1,0.503,2.21,6.99,7.35
1803,18.1,0.302,2.14,7.67,7.97
1804,18.1,0.114,2.14,8.32,8.59
1805,18.1,-0.115,2.07,8.95,9.18
1806,18.1,-0.367,1.94,9.65,9.85
1807,18.1,-0.623,1.8,10.5,10.7
1808,18.1,-0.828,1.64,11.4,11.6
1809,18.1,-0.987,1.47,12.2,12.3
1810,18.1,-1.09,1.36,12.7,12.8
1811,18.1,-1.08,1.29,12.7,12.8
1812,18.2,-0.924,1.28,12.0,12.2
1813,18.2,-0.676,1.26,10.9,11.0
1814,18.2,-0.429,1.32,9.63,9.73
1815,18.2,-0.285,1.5,8.58,8.72
1816,18.2,-0.2,1.74,7.67,7.87
1817,18.2,-0.0936,1.94,6.92,7.19
1818,18.2,-0.0313,2.06,6.3,6.63
1819,18.2,-0.0109,2.2,5.93,6.32
1820,18.2,-0.0486,2.29,5.82,6.26
1821,18.2,-0.233,2.3,6.01,6.43
1822,18.3,-0.46,2.34,6.27,6.71
1823,18.3,-0.662,2.47,6.56,7.05
1824,18.3,-0.86,2.59,6.89,7.41
1825,18.3,-1.03,2.7,7.19,7.75
1826,18.3,-1.15,2.82,7.36,7.96
1827,18.3,-1.24,2.9,7.39,8.04
1828,18.3,-1.29,3.05,7.43,8.13
1829,18.3,-1.36,3.27,7.5,8.3
1830,18.3,-1.47,3.41,7.67,8.52
1831,18.3,-1.6,3.56,7.9,8.81
1832,18.4,-1.78,3.71,8.18,9.16
1833,18.4,-2.02,3.81,8.45,9.49
1834,18.4,-2.26,3.91,8.83,9.91
1835,18.4,-2.52,3.93,9.34,10.4
1836,18.4,-2.69,3.89,9.87,10.9
1837,18.4,-2.75,3.81,10.5,11.5
1838,18.4,-2.68,3.81,10.9,11.8
1839,18.4,-2.49,3.89,11.0,11.9
1840,18.4,-2.36,3.89,10.8,11.7
1841,18.4,-2.35,3.83,10.7,11.6
1842,18.5,-2.43,3.76,10.8,11.7
1843,18.5,-2.48,3.76,11.1,12.0
1844,18.5,-2.49,3.63,11.5,12.3
1845,18.5,-2.49,3.32,12.0,12.7
1846,18.5,-2.53,2.79,12.4,13.0
1847,18.5,-2.71,2.08,12.7,13.1
1848,18.5,-3.07,1.42,13.0,13.4
1849,18.5,-3.57,1.2,13.7,14.2
1850,18.5,-4.06,1.39,14.6,15.2
1851,18.5,-4.23,1.47,15.2,15.8
1852,18.6,-4.16,1.41,15.1,15.7
1853,18.6,-3.53,1.27,13.7,14.2
1854,18.6,-2.71,0.908,11.6,11.9
1855,18.6,-2.04,0.626,9.34,9.58
1856,18.6,-1.48,0.808,7.33,7.52
1857,18.6,-1.26,1.16,5.86,6.11
1858,18.6,-1.41,1.72,5.19,5.64
1859,18.6,-1.78,2.49,5.0,5.86
1860,18.6,-2.3,3.31,5.07,6.48
1861,18.6,-2.83,3.99,5.3,7.21
1862,18.7,-3.29,4.56,5.57,7.92
1863,18.7,-3.7,4.93,5.9,8.53
1864,18.7,-4.02,5.13,6.39,9.13
1865,18.7,-4.25,5.18,7.14,9.79
1866,18.7,-4.37,5.06,8.14,10.5
1867,18.7,-4.36,4.62,9.19,11.2
1868,18.7,-4.11,3.83,10.1,11.6
1869,18.7,-3.55,2.88,10.8,11.7
1870,18.7,-2.8,1.8,11.1,11.6
1871,18.7,-2.02,0.768,11.3,11.5
1872,18.8,-1.18,-0.0575,10.9,11.0
1873,18.8,-0.358,-0.464,10.2,10.2
1874,18.8,0.273,-0.464,9.36,9.37
1875,18.8,0.567,-0.343,8.54,8.56
1876,18.8,0.745,-0.029,7.7,7.73
1877,18.8,0.862,0.488,7.2,7.26
1878,18.8,0.776,0.959,7.15,7.25
1879,18.8,0.626,1.33,7.27,7.42
1880,18.8,0.458,1.71,7.48,7.68
1881,18.8,0.275,1.98,7.66,7.92
1882,18.9,0.0885,2.16,7.76,8.06
1883,18.9,-0.0334,2.31,7.82,8.16
1884,18.9,-0.13,2.41,7.83,8.19
1885,18.9,-0.199,2.43,7.84,8.21
1886,18.9,-0.2,2.51,7.66,8.07
1887,18.9,-0.222,2.64,7.73,8.17
1888,18.9,-0.254,2.68,7.89,8.33
1889,18.9,-0.266,2.73,8.17,8.62
1890,18.9,-0.352,2.71,8.54,8.97
1891,19.0,-0.424,2.67,8.84,9.25
1892,19.0,-0.483,2.74,9.13,9.54
1893,19.0,-0.538,2.77,9.41,9.82
1894,19.0,-0.597,2.8,9.6,10.0
1895,19.0,-0.585,2.92,9.69,10.1
1896,19.0,-0.581,3.01,9.73,10.2
1897,19.0,-0.589,3.05,9.76,10.2
1898,19.0,-0.664,3.07,9.81,10.3
1899,19.0,-0.745,3.11,9.91,10.4
1900,19.0,-0.851,3.16,10.1,10.6
1901,19.1,-0.984,3.21,10.3,10.8
1902,19.1,-1.09,3.4,10.5,11.1
1903,19.1,-1.13,3.72,10.7,11.3
1904,19.1,-1.29,4.01,10.6,11.4
1905,19.1,-1.61,4.29,10.6,11.6
1906,19.1,-1.99,4.68,10.9,12.0
1907,19.1,-2.37,4.98,11.6,12.8
1908,19.1,-2.77,4.84,12.7,13.8
1909,19.1,-2.98,4.25,13.6,14.5
1910,19.1,-3.02,3.52,14.3,15.0
1911,19.2,-2.94,2.67,14.8,15.3
1912,19.2,-2.81,1.98,15.1,15.5
1913,19.2,-2.61,1.48,15.1,15.4
1914,19.2,-2.33,1.08,14.6,14.8
1915,19.2,-1.98,0.84,13.7,13.9
1916,19.2,-1.66,0.733,12.5,12.6
1917,19.2,-1.42,0.689,11.2,11.3
1918,19.2,-1.28,0.619,9.8,9.9
1919,19.2,-1.09,0.816,8.57,8.68
1920,19.2,-0.978,1.03,7.53,7.66
1921,19.3,-0.99,1.07,6.64,6.8
1922,19.3,-0.916,1.19,5.78,5.97
1923,19.3,-0.766,1.45,5.13,5.38
1924,19.3,-0.668,1.58,4.74,5.04
1925,19.3,-0.729,1.75,4.63,5.01
1926,19.3,-0.882,1.93,4.74,5.19
1927,19.3,-1.11,2.13,4.97,5.52
1928,19.3,-1.39,2.41,5.18,5.88
1929,19.3,-1.73,2.78,5.48,6.38
1930,19.3,-2.18,3.27,6.09,7.25
1931,19.4,-2.69,3.77,7.22,8.57
1932,19.4,-3.11,4.08,8.94,10.3
1933,19.4,-3.38,3.85,10.8,12.0
1934,19.4,-3.38,3.3,12.5,13.3
1935,19.4,-3.06,2.68,13.8,14.4
1936,19.4,-2.59,1.83,14.4,14.8
1937,19.4,-2.04,1.0,14.2,14.3
1938,19.4,-1.41,0.679,13.0,13.1
1939,19.4,-1.02,0.708,11.7,11.8
1940,19.4,-0.984,0.872,10.5,10.6
1941,19.5,-1.1,1.26,9.49,9.64
1942,19.5,-1.2,1.71,8.67,8.92
1943,19.5,-1.35,2.01,8.2,8.55
1944,19.5,-1.49,2.17,7.85,8.28
1945,19.5,-1.6,2.32,7.64,8.14
1946,19.5,-1.67,2.4,7.44,7.99
1947,19.5,-1.75,2.4,7.22,7.81
1948,19.5,-1.85,2.46,7.01,7.65
1949,19.5,-1.99,2.54,6.89,7.61
1950,19.5,-2.17,2.62,6.82,7.62
1951,19.6,-2.36,2.7,6.8,7.69
1952,19.6,-2.51,2.8,6.87,7.83
1953,19.6,-2.63,2.86,7.02,8.02
1954,19.6,-2.76,2.85,7.23,8.24
1955,19.6,-2.9,2.9,7.52,8.56
1956,19.6,-2.97,2.92,7.79,8.84
1957,19.6,-3.01,2.92,8.03,9.06
1958,19.6,-3.03,2.93,8.2,9.22
1959,19.6,-3.01,2.95,8.34,9.35
1960,19.6,-2.98,2.84,8.47,9.42
1961,19.7,-2.98,2.69,8.59,9.48
1962,19.7,-3.01,2.58,8.87,9.72
1963,19.7,-3.06,2.52,9.22,10.0
1964,19.7,-3.12,2.47,9.65,10.4
1965,19.7,-3.14,2.35,10.1,10.8
1966,19.7,-3.07,2.22,10.2,10.9
1967,19.7,-2.88,2.22,10.0,10.7
1968,19.7,-2.63,2.35,9.7,10.3
1969,19.7,-2.42,2.51,9.23,9.86
1970,19.7,-2.25,2.75,8.69,9.39
1971,19.8,-2.09,3.08,8.26,9.06
1972,19.8,-2.04,3.32,8.0,8.9
1973,19.8,-2.26,3.4,7.91,8.9
1974,19.8,-2.75,3.42,8.26,9.35
1975,19.8,-3.4,3.44,9.59,10.7
1976,19.8,-4.12,2.95,11.8,12.8
1977,19.8,-4.63,2.05,14.0,14.9
1978,19.8,-4.77,1.18,15.9,16.6
1979,19.8,-4.7,0.376,17.5,18.1
1980,19.8,-4.32,-0.395,18.2,18.7
1981,19.9,-3.79,-1.19,17.4,17.8
1982,19.9,-2.89,-1.22,15.2,15.5
1983,19.9,-2.11,-0.873,12.4,12.6
1984,19.9,-1.74,-0.626,9.54,9.72
1985,19.9,-1.59,-0.18,7.05,7.23
1986,19.9,-1.6,0.594,4.95,5.24
1987,19.9,-1.78,1.49,3.67,4.34
1988,19.9,-2.21,2.25,3.37,4.62
1989,19.9,-2.81,2.77,3.99,5.62
1990,19.9,-3.43,3.08,5.22,6.96
1991,20.0,-3.95,3.28,6.69,8.43
1992,20.0,-4.25,3.15,8.24,9.79
1993,20.0,-4.46,2.62,9.71,11.0
1994,20.0,-4.43,2.0,10.8,11.9
1995,20.0,-4.17,1.45,11.5,12.3
1996,20.0,-3.77,0.965,11.7,12.4
1997,20.0,-3.29,0.481,11.6,12.1
1998,20.0,-2.7,-0.0388,11.1,11.4
1999,20.0,-2.05,-0.426,10.5,10.7
2000,20.0,-1.41,-0.776,9.84,9.97
2001,20.1,-0.84,-0.978,9.19,9.28
2002,20.1,-0.358,-0.91,8.54,8.6
2003,20.1,0.0235,-0.557,8.02,8.04
2004,20.1,0.18,-0.174,7.63,7.63
2005,20.1,0.224,0.281,7.4,7.41
2006,20.1,0.177,0.79,7.39,7.44
2007,20.1,0.0922,1.24,7.64,7.74
2008,20.1,-0.0259,1.55,7.98,8.13
2009,20.1,-0.124,1.83,8.24,8.44
2010,20.1,-0.207,2.15,8.53,8.8
2011,20.2,-0.278,2.33,8.76,9.07
2012,20.2,-0.234,2.44,8.78,9.11
2013,20.2,-0.143,2.54,8.72,9.08
2014,20.2,-0.085,2.57,8.78,9.15
2015,20.2,-0.0356,2.6,8.97,9.34
2016,20.2,0.0186,2.64,9.26,9.63
2017,20.2,0.101,2.67,9.57,9.93
2018,20.2,0.216,2.66,9.78,10.1
2019,20.2,0.362,2.59,9.94,10.3
2020,20.2,0.486,2.42,10.0,10.3
2021,20.3,0.506,2.24,10.1,10.3
2022,20.3,0.469,2.17,9.97,10.2
2023,20.3,0.393,2.24,9.78,10.0
2024,20.3,0.275,2.28,9.67,9.94
2025,20.3,0.202,2.41,9.58,9.88
2026,20.3,0.229,2.6,9.22,9.58
2027,20.3,0.181,2.75,8.67,9.1
2028,20.3,-0.041,2.98,8.38,8.89
2029,20.3,-0.428,3.4,8.65,9.3
2030,20.3,-0.845,3.86,9.33,10.1
2031,20.4,-1.34,4.13,10.6,11.5
2032,20.4,-2.08,4.07,12.3,13.1
2033,20.4,-2.7,3.93,14.1,14.9
2034,20.4,-3.1,3.56,15.6,16.3
2035,20.4,-3.36,2.73,16.7,17.3
2036,20.4,-3.39,1.8,17.1,17.5
2037,20.4,-3.19,0.987,16.9,17.2
2038,20.4,-2.76,0.362,16.2,16.4
2039,20.4,-2.17,-0.0614,15.0,15.2
2040,20.4,-1.62,-0.391,13.8,13.9
2041,20.5,-1.19,-0.555,12.2,12.3
2042,20.5,-0.781,-0.564,10.5,10.5
2043,20.5,-0.398,-0.27,8.7,8.72
2044,20.5,-0.182,0.0921,7.1,7.1
2045,20.5,-0.155,0.413,5.86,5.88
2046,20.5,-0.244,0.743,5.03,5.09
2047,20.5,-0.397,1.01,4.51,4.64
2048,20.5,-0.658,1.15,4.32,4.52
2049,20.5,-1.13,1.25,4.63,4.93
2050,20.5,-1.74,1.41,5.3,5.75
2051,20.6,-2.35,1.74,6.04,6.71
2052,20.6,-2.89,2.23,6.87,7.78
2053,20.6,-3.35,2.57,8.18,9.2
2054,20.6,-3.83,2.46,9.77,10.8
2055,20.6,-4.07,2.05,11.4,12.2
2056,20.6,-4.06,1.58,12.7,13.4
2057,20.6,-3.87,1.01,13.5,14.1
2058,20.6,-3.48,0.363,13.5,14.0
2059,20.6,-2.97,-0.0618,12.7,13.0
2060,20.6,-2.37,-0.0861,11.3,11.6
2061,20.7,-1.95,0.182,9.83,10.0
2062,20.7,-1.73,0.543,8.63,8.82
2063,20.7,-1.57,0.899,7.66,7.87
2064,20.7,-1.42,1.21,6.97,7.21
2065,20.7,-1.23,1.42,6.6,6.86
2066,20.7,-0.999,1.5,6.42,6.67
2067,20.7,-0.862,1.5,6.44,6.67
2068,20.7,-0.781,1.48,6.56,6.77
2069,20.7,-0.71,1.5,6.75,6.95
2070,20.7,-0.698,1.6,6.86,7.08
2071,20.8,-0.708,1.82,6.94,7.21
2072,20.8,-0.7,2.01,7.06,7.38
2073,20.8,-0.699,2.1,7.25,7.58
2074,20.8,-0.638,2.16,7.39,7.73
2075,20.8,-0.535,2.24,7.58,7.92
2076,20.8,-0.493,2.31,7.94,8.29
2077,20.8,-0.566,2.33,8.31,8.65
2078,20.8,-0.635,2.39,8.66,9.0
2079,20.8,-0.685,2.5,8.98,9.35
2080,20.8,-0.824,2.64,9.34,9.74
2081,20.9,-1.04,2.76,9.88,10.3
2082,20.9,-1.22,2.84,10.5,10.9
2083,20.9,-1.44,2.87,11.0,11.5
2084,20.9,-1.56,2.95,11.4,11.9
2085,20.9,-1.65,2.95,11.8,12.3
2086,20.9,-1.63,2.91,11.9,12.4
2087,20.9,-1.54,2.9,11.7,12.1
2088,20.9,-1.45,2.9,11.2,11.7
2089,20.9,-1.32,2.95,10.8,11.3
2090,20.9,-1.15,3.13,10.5,11.0
2091,21.0,-0.985,3.39,10.1,10.7
2092,21.0,-0.916,3.52,9.77,10.4
2093,21.0,-0.967,3.61,9.63,10.3
2094,21.0,-1.1,3.84,9.7,10.5
2095,21.0,-1.37,4.01,9.86,10.7
2096,21.0,-1.86,3.93,10.4,11.3
2097,21.0,-2.46,3.7,11.7,12.5
2098,21.0,-2.84,3.28,13.3,14.0
2099,21.0,-3.0,2.58,15.0,15.6
2100,21.0,-3.02,1.63,16.4,16.8
2101,21.1,-2.62,0.781,16.6,16.8
2102,21.1,-1.96,0.0278,15.6,15.8
2103,21.1,-1.22,-0.389,13.8,13.8
2104,21.1,-0.526,-0.508,11.4,11.4
2105,21.1,-0.0433,-0.591,9.23,9.25
2106,21.1,0.176,-0.633,7.44,7.47
2107,21.1,0.191,-0.565,6.12,6.15
2108,21.1,0.0253,-0.42,5.37,5.39
2109,21.1,-0.408,-0.264,5.13,5.15
2110,21.1,-1.1,-0.153,5.43,5.55
2111,21.2,-1.88,0.163,6.02,6.31
2112,21.2,-2.6,0.783,6.66,7.19
2113,21.2,-3.25,1.54,7.21,8.05
2114,21.2,-3.97,2.21,7.9,9.11
2115,21.2,-4.56,2.93,8.7,10.3
2116,21.2,-4.89,3.59,9.52,11.3
2117,21.2,-5.03,3.93,10.4,12.2
2118,21.2,-4.94,3.82,11.2,12.8
2119,21.2,-4.6,3.36,11.6,13.0
2120,21.2,-4.02,2.69,11.6,12.6
2121,21.3,-3.34,2.01,11.3,11.9
2122,21.3,-2.7,1.52,10.7,11.1
2123,21.3,-2.16,1.28,10.0,10.3
2124,21.3,-1.75,1.15,9.41,9.64
2125,21.3,-1.52,1.18,8.92,9.13
2126,21.3,-1.34,1.35,8.5,8.71
2127,21.3,-1.28,1.52,8.22,8.45
2128,21.3,-1.27,1.72,8.07,8.35
2129,21.3,-1.23,1.98,8.02,8.35
2130,21.3,-1.18,2.2,8.01,8.39
2131,21.4,-1.15,2.43,8.07,8.5
2132,21.4,-1.15,2.6,8.08,8.56
2133,21.4,-1.16,2.69,8.09,8.61
2134,21.4,-1.22,2.69,8.15,8.67
2135,21.4,-1.28,2.68,8.15,8.67
2136,21.4,-1.36,2.69,8.17,8.71
2137,21.4,-1.54,2.71,8.41,8.97
2138,21.4,-1.75,2.72,8.79,9.37
2139,21.4,-2.04,2.75,9.27,9.89
2140,21.4,-2.3,2.85,9.7,10.4
2141,21.5,-2.54,2.83,10.1,10.8
2142,21.5,-2.7,2.75,10.5,11.1
2143,21.5,-2.58,2.87,10.5,11.2
2144,21.5,-2.43,2.9,10.4,11.0
2145,21.5,-2.25,2.87,10.1,10.7
2146,21.5,-2.07,2.84,9.7,10.3
2147,21.5,-1.89,2.83,9.31,9.91
2148,21.5,-1.71,2.79,9.01,9.59
2149,21.5,-1.57,2.68,8.85,9.38
2150,21.5,-1.45,2.55,8.71,9.19
2151,21.6,-1.29,2.5,8.68,9.12
2152,21.6,-1.18,2.52,8.7,9.14
2153,21.6,-1.16,2.53,8.6,9.04
2154,21.6,-1.16,2.65,8.36,8.85
2155,21.6,-1.24,2.88,8.28,8.86
2156,21.6,-1.48,3.15,8.6,9.28
2157,21.6,-1.76,3.29,9.31,10.0
2158,21.6,-2.0,3.16,10.3,11.0
2159,21.6,-2.13,2.85,11.3,11.8
2160,21.6,-2.16,2.51,12.1,12.5
2161,21.7,-2.22,1.92,12.4,12.8
2162,21.7,-1.94,1.63,11.9,12.2
2163,21.7,-1.47,1.6,11.1,11.3
2164,21.7,-1.15,1.37,10.0,10.2
2165,21.7,-0.762,1.41,8.93,9.08
2166,21.7,-0.426,1.56,7.91,8.07
2167,21.7,-0.118,1.69,7.1,7.3
2168,21.7,0.018,1.88,6.73,6.99
2169,21.7,0.0106,2.05,6.72,7.02
2170,21.7,-0.147,2.27,7.09,7.45
2171,21.8,-0.396,2.49,7.7,8.1
2172,21.8,-0.694,2.65,8.42,8.86
2173,21.8,-0.96,2.71,9.07,9.52
2174,21.8,-1.16,2.75,9.65,10.1
2175,21.8,-1.34,2.83,10.1,10.5
2176,21.8,-1.52,2.89,10.3,10.8
2177,21.8,-1.75,2.95,10.4,10.9
2178,21.8,-1.92,3.18,10.3,10.9
2179,21.8,-2.07,3.47,10.2,11.0
2180,21.8,-2.27,3.67,10.2,11.0
2181,21.9,-2.5,3.86,10.2,11.2
2182,21.9,-2.67,4.03,10.1,11.2
2183,21.9,-2.75,4.08,9.92,11.1
2184,21.9,-2.84,4.08,9.75,10.9
2185,21.9,-2.87,3.98,9.66,10.8
2186,21.9,-2.94,3.79,9.6,10.7
2187,21.9,-2.98,3.5,9.44,10.5
2188,21.9,-2.95,3.25,9.12,10.1
2189,21.9,-2.86,3.07,8.81,9.75
2190,21.9,-2.8,2.9,8.61,9.5
2191,22.0,-2.72,2.84,8.42,9.29
2192,22.0,-2.63,2.78,8.26,9.1
2193,22.0,-2.61,2.68,8.13,8.95
2194,22.0,-2.53,2.69,7.94,8.76
2195,22.0,-2.52,2.71,7.72,8.56
2196,22.0,-2.47,2.9,7.3,8.23
2197,22.0,-2.46,3.13,6.95,8.01
2198,22.0,-2.53,3.25,6.76,7.92
2199,22.0,-2.6,3.36,6.58,7.83
2200,22.0,-2.65,3.43,6.64,7.93
2201,22.1,-2.79,3.32,7.02,8.25
2202,22.1,-2.97,3.26,7.48,8.69
2203,22.1,-3.15,3.34,7.87,9.11
2204,22.1,-3.32,3.46,8.18,9.48
2205,22.1,-3.49,3.55,8.45,9.81
2206,22.1,-3.58,3.63,8.64,10.0
2207,22.1,-3.6,3.72,8.63,10.1
2208,22.1,-3.6,3.79,8.46,9.95
2209,22.1,-3.56,3.85,8.33,9.84
2210,22.1,-3.54,3.84,8.25,9.76
2211,22.2,-3.48,3.83,8.14,9.65
2212,22.2,-3.38,3.86,8.16,9.64
2213,22.2,-3.31,3.81,8.35,9.75
2214,22.2,-3.22,3.69,8.5,9.81
2215,22.2,-3.07,3.65,8.59,9.83
2216,22.2,-2.87,3.7,8.63,9.82
2217,22.2,-2.72,3.78,8.64,9.82
2218,22.2,-2.68,3.92,8.67,9.89
2219,22.2,-2.79,3.85,8.85,10.1
2220,22.2,-2.75,4.13,8.76,10.1
2221,22.3,-2.78,4.32,8.81,10.2
2222,22.3,-2.93,4.15,9.17,10.5
2223,22.3,-3.08,3.79,10.0,11.2
2224,22.3,-3.15,3.41,11.1,12.0
2225,22.3,-3.16,2.93,12.1,12.8
2226,22.3,-3.11,2.29,12.8,13.4
2227,22.3,-2.91,1.67,13.3,13.7
2228,22.3,-2.64,1.15,13.3,13.7
2229,22.3,-2.37,0.685,13.1,13.3
2230,22.3,-2.16,0.277,12.6,12.8
2231,22.4,-2.09,-0.0485,12.1,12.3
2232,22.4,-1.92,-0.0524,11.4,11.5
2233,22.4,-1.88,-0.195,10.8,11.0
2234,22.4,-1.97,-0.375,10.2,10.4
2235,22.4,-2.1,-0.373,9.57,9.8
2236,22.4,-2.27,-0.127,9.02,9.3
2237,22.4,-2.59,0.207,8.72,9.1
2238,22.4,-2.96,0.577,8.55,9.07
2239,22.4,-3.28,1.05,8.49,9.16
2240,22.4,-3.48,1.54,8.49,9.3
2241,22.5,-3.61,1.99,8.58,9.51
2242,22.5,-3.61,2.32,8.7,9.7
2243,22.5,-3.47,2.51,8.63,9.64
2244,22.5,-3.2,2.58,8.36,9.31
2245,22.5,-2.83,2.58,8.05,8.91
2246,22.5,-2.43,2.53,7.76,8.52
2247,22.5,-1.99,2.41,7.58,8.2
2248,22.5,-1.62,2.25,7.56,8.05
2249,22.5,-1.33,2.09,7.66,8.05
2250,22.5,-1.11,2.0,7.81,8.13
2251,22.6,-0.886,2.06,7.8,8.11
2252,22.6,-0.742,2.13,7.8,8.12
2253,22.6,-0.703,2.17,7.91,8.23
2254,22.6,-0.688,2.31,8.11,8.46
2255,22.6,-0.714,2.46,8.33,8.72
2256,22.6,-0.782,2.56,8.65,9.05
2257,22.6,-0.854,2.63,8.97,9.39
2258,22.6,-0.909,2.68,9.18,9.6
2259,22.6,-0.916,2.72,9.23,9.67
2260,22.6,-0.946,2.67,9.19,9.62
2261,22.7,-0.975,2.69,9.12,9.55
2262,22.7,-1.04,2.85,9.07,9.57
2263,22.7,-1.14,2.99,9.13,9.68
2264,22.7,-1.24,3.01,9.27,9.82
2265,22.7,-1.33,3.0,9.38,9.94
2266,22.7,-1.42,2.99,9.42,9.99
2267,22.7,-1.52,2.98,9.52,10.1
2268,22.7,-1.69,3.01,9.66,10.3
2269,22.7,-1.81,3.06,9.74,10.4
2270,22.7,-1.89,3.07,9.69,10.3
2271,22.8,-1.97,3.05,9.67,10.3
2272,22.8,-1.99,3.08,9.74,10.4
2273,22.8,-1.99,3.08,9.74,10.4
2274,22.8,-1.96,3.05,9.7,10.4
2275,22.8,-1.87,2.98,9.53,10.2
2276,22.8,-1.76,2.91,9.32,9.92
2277,22.8,-1.69,2.86,9.17,9.75
2278,22.8,-1.73,2.81,9.18,9.75
2279,22.8,-1.79,2.82,9.31,9.89
2280,22.8,-1.84,2.81,9.45,10.0
2281,22.9,-1.9,2.74,9.59,10.1
2282,22.9,-1.98,2.73,9.66,10.2
2283,22.9,-2.05,2.78,9.82,10.4
2284,22.9,-2.1,2.74,10.1,10.6
2285,22.9,-2.13,2.62,10.3,10.9
2286,22.9,-2.07,2.65,10.6,11.1
2287,22.9,-2.06,2.63,10.8,11.3
2288,22.9,-1.99,2.71,10.8,11.3
2289,22.9,-1.84,3.01,10.7,11.2
2290,22.9,-1.83,3.37,10.7,11.4
2291,23.0,-1.93,3.77,11.0,11.8
2292,23.0,-2.03,4.16,11.4,12.3
2293,23.0,-2.12,4.21,12.1,12.9
2294,23.0,-2.23,3.89,12.8,13.6
2295,23.0,-2.34,3.41,13.6,14.2
2296,23.0,-2.39,2.69,14.1,14.6
2297,23.0,-2.42,2.02,14.2,14.6
2298,23.0,-2.33,1.57,13.9,14.2
2299,23.0,-2.11,1.39,13.4,13.6
2300,23.0,-1.86,1.25,12.7,12.9
2301,23.1,-1.63,0.958,11.8,11.9
2302,23.1,-1.38,0.785,10.7,10.8
2303,23.1,-1.12,0.743,9.43,9.53
2304,23.1,-0.797,0.834,8.09,8.17
2305,23.1,-0.533,1.04,6.87,6.97
2306,23.1,-0.318,1.42,6.04,6.22
2307,23.1,-0.253,1.87,5.81,6.11
2308,23.1,-0.298,2.26,5.91,6.34
2309,23.1,-0.191,2.62,5.89,6.45
2310,23.1,-0.054,2.81,5.95,6.58
2311,23.2,0.0109,2.9,5.88,6.56
2312,23.2,0.12,2.99,5.81,6.53
2313,23.2,0.169,3.01,5.97,6.68
2314,23.2,0.0982,2.97,6.59,7.23
2315,23.2,-0.0692,2.93,7.56,8.11
2316,23.2,-0.29,2.95,8.58,9.08
2317,23.2,-0.546,3.06,9.48,9.98
2318,23.2,-0.813,3.23,10.2,10.8
2319,23.2,-1.14,3.39,10.9,11.5
2320,23.2,-1.34,3.54,11.1,11.7
2321,23.3,-1.41,3.7,11.0,11.7
2322,23.3,-1.46,3.76,10.8,11.5
2323,23.3,-1.43,3.75,10.4,11.1
2324,23.3,-1.34,3.71,9.91,10.7
2325,23.3,-1.23,3.64,9.46,10.2
2326,23.3,-1.15,3.51,9.16,9.88
2327,23.3,-1.07,3.37,8.91,9.58
2328,23.3,-0.993,3.26,8.62,9.27
2329,23.3,-0.922,3.14,8.38,9.0
2330,23.3,-0.834,3.01,8.17,8.75
2331,23.4,-0.774,2.88,7.99,8.53
2332,23.4,-0.762,2.74,7.92,8.41
2333,23.4,-0.8,2.65,7.88,8.35
2334,23.4,-0.873,2.69,7.87,8.37
2335,23.4,-1.02,2.79,7.92,8.45
2336,23.4,-1.17,2.88,7.94,8.53
2337,23.4,-1.31,2.99,7.93,8.58
2338,23.4,-1.45,3.09,7.97,8.67
2339,23.4,-1.59,3.2,8.05,8.81
2340,23.4,-1.71,3.23,8.16,8.94
2341,23.5,-1.79,3.23,8.2,9.0
2342,23.5,-1.83,3.22,8.21,9.0
2343,23.5,-1.86,3.17,8.14,8.93
2344,23.5,-1.89,3.11,8.13,8.9
2345,23.5,-1.9,3.08,8.09,8.87
2346,23.5,-1.93,3.12,8.06,8.86
2347,23.5,-1.98,3.23,8.12,8.96
2348,23.5,-1.98,3.35,8.16,9.04
2349,23.5,-1.97,3.41,8.08,8.99
2350,23.5,-1.96,3.6,7.97,8.96
2351,23.6,-1.96,3.92,7.99,9.11
2352,23.6,-1.95,4.24,8.0,9.26
2353,23.6,-1.96,4.5,7.93,9.33
2354,23.6,-2.12,4.66,7.93,9.44
2355,23.6,-2.37,4.88,8.05,9.71
2356,23.6,-2.66,5.28,8.44,10.3
2357,23.6,-2.98,5.66,9.13,11.1
2358,23.6,-3.27,5.58,10.1,12.0
2359,23.6,-3.49,5.01,11.1,12.7
2360,23.6,-3.49,4.14,12.3,13.4
2361,23.7,-3.43,3.2,13.4,14.2
2362,23.7,-3.21,2.17,14.2,14.7
2363,23.7,-2.82,1.25,14.3,14.6
2364,23.7,-2.24,0.855,13.5,13.7
2365,23.7,-1.59,0.775,12.3,12.4
2366,23.7,-1.11,0.607,11.1,11.1
2367,23.7,-0.707,0.587,9.79,9.83
2368,23.7,-0.389,0.642,8.49,8.52
2369,23.7,-0.298,0.675,7.35,7.39
2370,23.7,-0.417,0.944,6.57,6.65
2371,23.8,-0.777,1.42,6.25,6.45
2372,23.8,-1.34,1.92,6.48,6.89
2373,23.8,-2.0,2.33,6.89,7.54
2374,23.8,-2.61,2.83,7.24,8.2
2375,23.8,-3.08,3.36,7.57,8.84
2376,23.8,-3.41,3.78,7.75,9.27
2377,23.8,-3.6,4.08,8.01,9.68
2378,23.8,-3.6,4.26,8.08,9.82
2379,23.8,-3.37,4.37,7.93,9.66
2380,23.9,-3.08,4.28,7.74,9.36
2381,23.9,-2.8,4.08,7.7,9.16
2382,23.9,-2.54,3.88,7.89,9.15
2383,23.9,-2.24,3.6,8.22,9.25
2384,23.9,-1.98,3.29,8.59,9.4
2385,23.9,-1.67,3.08,8.78,9.46
2386,23.9,-1.32,2.86,8.78,9.33
2387,23.9,-1.01,2.61,8.65,9.09
2388,23.9,-0.787,2.41,8.47,8.84
2389,23.9,-0.66,2.31,8.32,8.66
2390,24.0,-0.618,2.34,8.16,8.51
2391,24.0,-0.65,2.52,7.92,8.34
2392,24.0,-0.798,2.86,7.84,8.38
2393,24.0,-1.03,3.2,8.1,8.77
2394,24.0,-1.29,3.48,8.48,9.26
2395,24.0,-1.51,3.73,8.76,9.64
2396,24.0,-1.7,3.95,8.94,9.92
2397,24.0,-1.86,4.1,9.16,10.2
2398,24.0,-2.03,4.19,9.38,10.5
2399,24.0,-2.11,4.23,9.52,10.6
2400,24.1,-2.12,4.24,9.67,10.8
2401,24.1,-2.05,4.16,9.79,10.8
2402,24.1,-1.93,4.01,9.74,10.7
2403,24.1,-1.79,3.93,9.68,10.6
2404,24.1,-1.71,3.91,9.64,10.5
2405,24.1,-1.68,3.94,9.64,10.5
2406,24.1,-1.68,3.98,9.62,10.5
2407,24.1,-1.68,4.02,9.67,10.6
2408,24.1,-1.72,4.07,9.88,10.8
2409,24.1,-1.82,4.04,10.1,11.1
2410,24.2,-1.88,4.06,10.3,11.2
2411,24.2,-1.78,4.24,10.3,11.3
2412,24.2,-1.6,4.55,10.2,11.3
2413,24.2,-1.42,4.72,9.69,10.9
2414,24.2,-1.4,4.67,8.97,10.2
2415,24.2,-1.53,4.67,8.7,9.99
2416,24.2,-1.75,4.78,9.12,10.4
2417,24.2,-1.91,4.76,9.97,11.2
2418,24.2,-2.06,4.48,10.7,11.8
2419,24.2,-2.22,3.95,11.1,12.0
2420,24.3,-2.47,3.44,11.3,12.0
2421,24.3,-2.94,3.23,11.7,12.5
2422,24.3,-3.45,3.35,12.5,13.4
2423,24.3,-3.82,3.54,13.1,14.1
2424,24.3,-3.94,3.41,13.7,14.7
2425,24.3,-4.04,3.05,14.1,15.0
2426,24.3,-3.61,2.63,13.7,14.4
2427,24.3,-2.84,2.12,12.4,12.9
2428,24.3,-2.03,1.59,10.6,10.9
2429,24.3,-1.42,1.28,9.04,9.24
2430,24.4,-0.877,1.36,7.51,7.68
2431,24.4,-0.597,1.6,6.4,6.62
2432,24.4,-0.593,1.91,5.92,6.25
2433,24.4,-0.74,2.24,6.01,6.46
2434,24.4,-1.06,2.5,6.62,7.16
2435,24.4,-1.45,2.64,7.57,8.15
2436,24.4,-1.8,2.69,8.62,9.21
2437,24.4,-2.11,2.66,9.61,10.2
2438,24.4,-2.36,2.6,10.4,10.9
2439,24.4,-2.52,2.52,10.9,11.5
2440,24.5,-2.65,2.42,11.2,11.8
2441,24.5,-2.62,2.37,11.2,11.7
2442,24.5,-2.55,2.31,10.9,11.4
2443,24.5,-2.48,2.25,10.5,11.0
2444,24.5,-2.39,2.26,9.93,10.5
2445,24.5,-2.26,2.36,9.38,9.93
2446,24.5,-2.21,2.47,8.89,9.49
2447,24.5,-2.15,2.6,8.46,9.11
2448,24.5,-2.03,2.75,8.04,8.73
2449,24.5,-1.9,2.88,7.6,8.34
2450,24.6,-1.76,2.99,7.21,8.0
2451,24.6,-1.61,3.1,6.89,7.73
2452,24.6,-1.44,3.18,6.64,7.5
2453,24.6,-1.27,3.19,6.46,7.32
2454,24.6,-1.13,3.15,6.35,7.18
2455,24.6,-1.02,3.06,6.32,7.09
2456,24.6,-0.854,3.08,6.25,7.02
2457,24.6,-0.783,3.05,6.45,7.18
2458,24.6,-0.857,2.91,6.88,7.51
2459,24.6,-0.915,2.87,7.33,7.93
2460,24.7,-0.958,2.87,7.66,8.24
2461,24.7,-1.02,2.84,7.86,8.42
2462,24.7,-1.12,2.84,7.9,8.47
2463,24.7,-1.27,2.9,7.91,8.52
2464,24.7,-1.45,3.06,7.95,8.64
2465,24.7,-1.67,3.24,8.07,8.86
2466,24.7,-1.95,3.38,8.27,9.14
2467,24.7,-2.21,3.48,8.52,9.46
2468,24.7,-2.45,3.59,8.73,9.76
2469,24.7,-2.68,3.65,8.9,9.99
2470,24.8,-2.92,3.65,9.04,10.2
2471,24.8,-3.13,3.64,9.23,10.4
2472,24.8,-3.23,3.71,9.4,10.6
2473,24.8,-3.15,3.94,9.47,10.7
2474,24.8,-2.96,4.21,9.18,10.5
2475,24.8,-2.85,4.23,8.72,10.1
2476,24.8,-2.89,4.13,8.32,9.73
2477,24.8,-3.04,4.25,8.19,9.71
2478,24.8,-3.2,4.64,8.54,10.2
2479,24.8,-3.38,4.83,9.11,10.9
2480,24.9,-3.54,4.31,9.57,11.1
2481,24.9,-3.58,3.42,9.61,10.8
2482,24.9,-3.53,2.44,9.21,10.2
2483,24.9,-3.5,1.63,9.0,9.79
2484,24.9,-3.59,1.07,9.23,9.96
2485,24.9,-3.8,0.726,9.91,10.6
2486,24.9,-4.16,0.595,10.9,11.7
2487,24.9,-4.53,0.625,12.0,12.9
2488,24.9,-4.8,0.895,12.9,13.8
2489,24.9,-4.9,1.07,13.5,14.4
2490,25.0,-4.78,0.954,13.6,14.4
2491,25.0,-4.51,0.531,12.7,13.5
2492,25.0,-4.09,0.138,11.0,11.8
2493,25.0,-3.74,0.186,9.19,9.92
2494,25.0,-3.77,0.428,7.71,8.6
2495,25.0,-3.98,0.979,6.65,7.81
2496,25.0,-4.44,1.63,6.3,7.88
2497,25.0,-5.03,2.26,6.55,8.56
2498,25.0,-5.6,2.94,7.13,9.53
2499,25.0,-6.11,3.59,8.01,10.7
2500,25.1,-6.45,4.05,8.92,11.7
2501,25.1,-6.64,4.17,10.0,12.7
2502,25.1,-6.65,3.95,10.8,13.3
2503,25.1,-6.42,3.67,11.2,13.5
2504,25.1,-6.01,3.33,11.2,13.2
2505,25.1,-5.5,2.91,10.7,12.4
2506,25.1,-4.91,2.51,9.99,11.4
2507,25.1,-4.31,2.09,9.18,10.4
2508,25.1,-3.74,1.74,8.32,9.29
2509,25.1,-3.17,1.56,7.4,8.21
2510,25.2,-2.61,1.55,6.68,7.34
2511,25.2,-2.22,1.59,6.24,6.81
2512,25.2,-2.06,1.72,6.09,6.65
2513,25.2,-1.99,1.89,6.13,6.71
2514,25.2,-2.05,2.07,6.36,6.99
2515,25.2,-2.16,2.28,6.79,7.48
2516,25.2,-2.33,2.47,7.38,8.13
2517,25.2,-2.5,2.64,7.98,8.76
2518,25.2,-2.67,2.76,8.43,9.27
2519,25.2,-2.83,2.92,8.75,9.65
2520,25.3,-2.97,3.05,8.95,9.91
2521,25.3,-3.09,3.11,9.05,10.1
2522,25.3,-3.18,3.15,9.17,10.2
2523,25.3,-3.24,3.12,9.32,10.4
2524,25.3,-3.29,3.06,9.44,10.5
2525,25.3,-3.3,3.0,9.48,10.5
2526,25.3,-3.25,2.91,9.46,10.4
2527,25.3,-3.21,2.83,9.37,10.3
2528,25.3,-3.22,2.77,9.23,10.2
2529,25.3,-3.24,2.77,9.07,10.0
2530,25.4,-3.28,2.82,8.91,9.9
2531,25.4,-3.35,2.94,8.87,9.93
2532,25.4,-3.47,3.05,8.98,10.1
2533,25.4,-3.56,3.21,9.11,10.3
2534,25.4,-3.55,3.57,8.99,10.3
2535,25.4,-3.47,3.93,8.66,10.1
2536,25.4,-3.49,4.2,8.44,10.1
2537,25.4,-3.79,4.51,8.41,10.3
2538,25.4,-4.3,4.94,8.89,11.0
2539,25.4,-4.82,5.05,9.98,12.2
2540,25.5,-5.13,4.76,11.5,13.5
2541,25.5,-5.41,3.98,13.4,15.0
2542,25.5,-5.51,2.92,15.4,16.6
2543,25.5,-5.3,1.95,16.8,17.7
2544,25.5,-4.77,1.04,16.8,17.5
2545,25.5,-3.99,0.436,15.5,16.0
2546,25.5,-3.22,0.264,13.3,13.7
2547,25.5,-2.77,0.44,11.1,11.5
2548,25.5,-2.48,0.847,9.23,9.59
2549,25.5,-2.37,1.26,7.83,8.28
2550,25.6,-2.25,1.54,7.04,7.55
2551,25.6,-2.21,1.6,6.82,7.35
2552,25.6,-2.25,1.59,6.98,7.5
2553,25.6,-2.19,1.64,7.08,7.59
2554,25.6,-2.05,1.68,7.03,7.51
2555,25.6,-1.89,1.68,6.86,7.31
2556,25.6,-1.71,1.71,6.56,6.99
2557,25.6,-1.51,1.76,6.33,6.75
2558,25.6,-1.3,1.82,6.34,6.72
2559,25.6,-1.11,1.72,6.5,6.82
2560,25.7,-0.935,1.51,6.77,7.0
2561,25.7,-0.704,1.26,7.05,7.19
2562,25.7,-0.478,0.954,7.27,7.35
2563,25.7,-0.31,0.663,7.64,7.67
2564,25.7,-0.227,0.411,8.21,8.22
2565,25.7,-0.298,0.245,8.93,8.94
2566,25.7,-0.496,0.256,9.7,9.71
2567,25.7,-0.722,0.424,10.3,10.3
2568,25.7,-0.902,0.749,10.7,10.7
2569,25.7,-1.23,1.02,10.9,11.0
2570,25.8,-1.52,1.44,10.8,11.0
2571,25.8,-1.68,2.05,10.4,10.7
2572,25.8,-1.86,2.46,9.9,10.4
2573,25.8,-2.01,2.66,9.4,9.97
2574,25.8,-2.07,2.83,9.01,9.67
2575,25.8,-2.08,2.96,8.75,9.47
2576,25.8,-2.07,2.94,8.53,9.26
2577,25.8,-2.02,2.95,8.32,9.06
2578,25.8,-1.92,2.96,8.2,8.93
2579,25.8,-1.82,2.92,8.09,8.79
2580,25.9,-1.74,2.95,8.01,8.71
2581,25.9,-1.67,2.95,8.04,8.72
2582,25.9,-1.68,2.93,8.15,8.82
2583,25.9,-1.72,2.98,8.31,8.99
2584,25.9,-1.72,3.09,8.54,9.24
2585,25.9,-1.82,3.11,8.76,9.47
2586,25.9,-1.81,3.15,8.78,9.5
2587,25.9,-1.92,3.05,9.11,9.8
2588,25.9,-2.04,2.96,9.27,9.95
2589,25.9,-2.05,3.05,9.3,10.0
2590,26.0,-2.09,3.08,9.32,10.0
2591,26.0,-2.21,3.01,9.46,10.2
2592,26.0,-2.3,2.96,9.62,10.3
2593,26.0,-2.46,2.85,9.77,10.5
2594,26.0,-2.5,2.88,9.82,10.5
2595,26.0,-2.55,2.88,9.88,10.6
2596,26.0,-2.67,2.77,9.86,10.6
2597,26.0,-2.77,2.69,9.81,10.5
2598,26.0,-2.87,2.61,9.85,10.6
2599,26.0,-2.95,2.54,9.95,10.7
2600,26.1,-2.97,2.5,10.1,10.8
2601,26.1,-3.03,2.36,10.3,10.9
2602,26.1,-2.98,2.43,10.1,10.8
2603,26.1,-2.94,2.59,9.74,10.5
2604,26.1,-3.13,2.62,9.31,10.2
2605,26.1,-3.66,2.65,8.57,9.68
2606,26.1,-4.48,2.99,8.26,9.86
2607,26.1,-5.51,3.17,9.41,11.4
2608,26.1,-6.43,2.67,11.4,13.4
2609,26.1,-7.19,1.42,13.7,15.6
2610,26.2,-7.65,0.0277,15.5,17.3
2611,26.2,-7.49,-0.7,16.3,18.0
2612,26.2,-6.78,-1.23,16.0,17.4
2613,26.2,-5.76,-1.59,14.5,15.6
2614,26.2,-4.63,-1.57,12.3,13.2
2615,26.2,-3.63,-1.49,10.2,10.9
2616,26.2,-2.76,-1.49,8.7,9.24
2617,26.2,-2.09,-1.61,7.67,8.11
2618,26.2,-1.64,-1.76,7.0,7.41
2619,26.2,-1.4,-1.9,6.66,7.07
2620,26.3,-1.4,-1.84,6.62,7.01
2621,26.3,-1.58,-1.45,6.91,7.23
2622,26.3,-1.9,-0.93,7.33,7.63
2623,26.3,-2.24,-0.359,7.84,8.17
2624,26.3,-2.6,0.193,8.55,8.94
2625,26.3,-2.92,0.59,9.32,9.79
2626,26.3,-3.15,0.854,9.92,10.4
2627,26.3,-3.21,0.961,10.3,10.8
2628,26.3,-3.15,0.824,10.4,10.9
2629,26.3,-3.01,0.601,10.4,10.8
2630,26.4,-2.72,0.43,10.4,10.7
2631,26.4,-2.37,0.185,10.3,10.6
2632,26.4,-2.06,-0.0662,10.3,10.5
2633,26.4,-1.74,-0.209,10.2,10.4
2634,26.4,-1.49,-0.234,10.2,10.3
2635,26.4,-1.31,-0.209,9.98,10.1
2636,26.4,-1.24,0.0193,9.78,9.86
2637,26.4,-1.23,0.394,9.55,9.64
2638,26.4,-1.32,0.815,9.24,9.37
2639,26.4,-1.38,1.41,8.92,9.14
2640,26.5,-1.51,1.82,8.83,9.15
2641,26.5,-1.71,2.02,8.86,9.24
2642,26.5,-1.83,2.31,8.88,9.36
2643,26.5,-1.94,2.63,9.04,9.61
2644,26.5,-2.13,2.79,9.38,10.0
2645,26.5,-2.26,2.84,9.57,10.2
2646,26.5,-2.23,2.87,9.55,10.2
2647,26.5,-2.13,2.87,9.46,10.1
2648,26.5,-2.04,2.8,9.35,9.98
2649,26.5,-1.96,2.77,9.2,9.81
2650,26.6,-1.84,2.88,9.01,9.63
2651,26.6,-1.72,2.95,8.83,9.47
2652,26.6,-1.61,2.98,8.64,9.27
2653,26.6,-1.48,3.0,8.36,9.0
2654,26.6,-1.32,3.05,8.09,8.75
2655,26.6,-1.19,3.08,7.85,8.52
2656,26.6,-1.08,3.17,7.7,8.4
2657,26.6,-1.02,3.33,7.72,8.47
2658,26.6,-1.04,3.44,7.87,8.65
2659,26.6,-1.05,3.53,8.05,8.85
2660,26.7,-1.07,3.58,8.27,9.08
2661,26.7,-1.13,3.64,8.48,9.29
2662,26.7,-1.15,3.68,8.66,9.48
2663,26.7,-1.18,3.66,8.9,9.7
2664,26.7,-1.22,3.61,9.15,9.91
2665,26.7,-1.23,3.54,9.38,10.1
2666,26.7,-1.25,3.46,9.58,10.3
2667,26.7,-1.31,3.45,9.85,10.5
2668,26.7,-1.4,3.53,10.1,10.8
2669,26.7,-1.43,3.62,10.2,10.9
2670,26.8,-1.42,3.81,10.1,10.8
2671,26.8,-1.37,4.08,9.73,10.6
2672,26.8,-1.29,4.42,9.31,10.4
2673,26.8,-1.19,4.73,8.86,10.1
2674,26.8,-1.14,5.02,8.7,10.1
2675,26.8,-1.18,5.15,9.03,10.5
2676,26.8,-1.36,5.04,9.86,11.2
2677,26.8,-1.43,4.76,10.9,12.0
2678,26.8,-1.4,4.26,11.8,12.7
2679,26.8,-1.28,3.79,12.3,12.9
2680,26.9,-1.03,3.48,12.2,12.8
2681,26.9,-0.868,3.33,11.8,12.3
2682,26.9,-0.535,3.63,11.0,11.6
2683,26.9,-0.378,4.03,10.2,10.9
2684,26.9,-0.238,4.35,9.28,10.2
2685,26.9,-0.187,4.61,8.72,9.86
2686,26.9,-0.189,4.75,8.29,9.56
2687,26.9,-0.384,4.58,8.27,9.46
2688,26.9,-0.469,4.47,8.3,9.44
2689,26.9,-0.549,4.5,8.53,9.66
2690,27.0,-0.77,4.12,9.13,10.0
2691,27.0,-0.923,3.82,9.89,10.6
2692,27.0,-0.899,3.48,10.5,11.1
2693,27.0,-0.751,2.98,10.6,11.1
2694,27.0,-0.494,2.7,10.2,10.6
2695,27.0,-0.184,2.61,9.65,10.0
2696,27.0,0.0151,2.5,9.04,9.38
2697,27.0,0.148,2.47,8.56,8.91
2698,27.0,0.145,2.56,8.33,8.71
2699,27.0,0.334,3.14,8.15,8.74
2700,27.1,0.282,3.4,8.41,9.08
2701,27.1,0.113,3.28,8.68,9.28
2702,27.1,0.109,3.28,8.85,9.44
2703,27.1,0.241,3.41,8.94,9.57
2704,27.1,0.379,3.33,8.99,9.6
2705,27.1,0.513,3.29,8.98,9.57
2706,27.1,0.599,3.29,8.93,9.54
2707,27.1,0.728,3.5,8.87,9.56
2708,27.1,0.639,3.64,9.19,9.91
2709,27.1,0.48,3.68,9.72,10.4
2710,27.2,0.394,3.6,10.2,10.8
2711,27.2,0.394,3.55,10.7,11.3
2712,27.2,0.356,3.24,11.0,11.5
2713,27.2,0.415,2.91,11.2,11.6
2714,27.2,0.527,2.62,11.2,11.5
2715,27.2,0.599,2.3,11.2,11.4
2716,27.2,0.611,2.04,11.1,11.3
2717,27.2,0.58,1.91,10.9,11.1
2718,27.2,0.541,1.88,10.6,10.7
2719,27.2,0.472,1.92,10.2,10.4
2720,27.3,0.417,1.95,9.75,9.95
2721,27.3,0.37,1.99,9.35,9.57
2722,27.3,0.325,2.04,9.02,9.25
2723,27.3,0.299,2.21,8.56,8.85
2724,27.3,0.363,2.38,8.15,8.5
2725,27.3,0.36,2.29,7.97,8.29
2726,27.3,0.38,2.24,7.97,8.29
2727,27.3,0.429,2.26,8.02,8.35
2728,27.3,0.463,2.22,8.01,8.33
2729,27.3,0.48,2.25,7.96,8.28
2730,27.4,0.496,2.35,7.98,8.33
2731,27.4,0.458,2.45,8.02,8.4
2732,27.4,0.367,2.53,8.12,8.51
2733,27.4,0.322,2.68,8.27,8.7
2734,27.4,0.39,2.9,8.44,8.93
2735,27.4,0.451,3.18,8.53,9.11
2736,27.4,0.431,3.52,8.58,9.28
2737,27.4,0.285,3.69,8.38,9.16
2738,27.4,-0.0368,3.76,8.15,8.97
2739,27.4,-0.514,3.85,8.13,9.01
2740,27.5,-1.24,3.89,8.7,9.61
2741,27.5,-2.04,3.92,10.1,11.0
2742,27.5,-2.51,3.55,11.7,12.5
2743,27.5,-2.53,2.59,13.2,13.7
2744,27.5,-2.19,1.48,14.2,14.4
2745,27.5,-1.53,0.559,14.4,14.5
2746,27.5,-0.764,-0.12,13.6,13.6
2747,27.5,-0.044,-0.298,12.0,12.0
2748,27.5,0.327,-0.151,10.3,10.3
2749,27.5,0.354,0.259,8.76,8.78
2750,27.6,0.272,1.03,7.71,7.78
2751,27.6,0.078,1.83,7.05,7.29
2752,27.6,-0.216,2.44,6.78,7.21
2753,27.6,-0.496,2.91,6.91,7.51
2754,27.6,-0.836,3.21,7.31,8.03
2755,27.6,-1.25,3.5,7.91,8.74
2756,27.6,-1.7,3.75,8.47,9.42
2757,27.6,-2.07,3.86,8.74,9.78
2758,27.6,-2.23,4.0,8.7,9.83
2759,27.6,-2.23,4.05,8.62,9.78
2760,27.7,-2.16,3.93,8.65,9.75
2761,27.7,-1.95,3.74,8.78,9.74
2762,27.7,-1.58,3.49,8.96,9.75
2763,27.7,-1.27,3.07,9.24,9.82
2764,27.7,-0.953,2.64,9.48,9.89
2765,27.7,-0.623,2.33,9.66,9.96
2766,27.7,-0.346,2.13,9.71,9.95
2767,27.7,-0.114,2.01,9.65,9.86
2768,27.7,0.114,1.9,9.37,9.56
2769,27.7,0.327,1.87,8.88,9.08
2770,27.8,0.457,1.95,8.44,8.67
2771,27.8,0.435,2.14,8.17,8.46
2772,27.8,0.298,2.41,8.04,8.4
2773,27.8,0.103,2.76,8.06,8.52
2774,27.8,-0.128,3.06,8.21,8.76
2775,27.8,-0.354,3.3,8.4,9.03
2776,27.8,-0.539,3.53,8.53,9.25
2777,27.8,-0.715,3.75,8.63,9.43
2778,27.8,-0.87,3.86,8.72,9.58
2779,27.8,-0.998,3.9,8.78,9.66
2780,27.9,-1.09,3.92,8.79,9.68
2781,27.9,-1.15,3.95,8.8,9.72
2782,27.9,-1.18,3.99,8.83,9.76
2783,27.9,-1.17,3.96,8.79,9.72
2784,27.9,-1.12,3.91,8.73,9.63
2785,27.9,-1.09,3.88,8.67,9.56
2786,27.9,-1.06,3.87,8.64,9.52
2787,27.9,-1.03,3.87,8.61,9.5
2788,27.9,-1.03,3.87,8.73,9.6
2789,27.9,-1.02,3.85,8.84,9.69
2790,28.0,-0.923,3.89,8.82,9.68
2791,28.0,-0.799,3.93,8.65,9.53
2792,28.0,-0.699,3.92,8.5,9.39
2793,28.0,-0.665,3.91,8.46,9.34
2794,28.0,-0.673,3.93,8.59,9.47
2795,28.0,-0.688,4.0,8.8,9.69
2796,28.0,-0.703,4.09,9.0,9.91
2797,28.0,-0.69,4.21,9.21,10.2
2798,28.0,-0.588,4.39,9.39,10.4
2799,28.0,-0.396,4.64,9.42,10.5
2800,28.1,-0.384,4.74,9.45,10.6
2801,28.1,-0.555,4.59,9.46,10.5
2802,28.1,-0.707,4.63,9.45,10.5
2803,28.1,-0.785,4.86,9.54,10.7
2804,28.1,-0.926,4.91,9.77,11.0
2805,28.1,-1.12,4.78,10.2,11.3
2806,28.1,-1.29,4.52,10.8,11.7
2807,28.1,-1.32,4.1,11.5,12.3
2808,28.1,-1.27,3.44,12.4,12.9
2809,28.1,-1.17,2.72,12.9,13.3
2810,28.2,-1.15,1.97,13.5,13.7
2811,28.2,-1.16,1.42,13.6,13.7
2812,28.2,-0.949,1.19,13.2,13.3
2813,28.2,-0.746,1.01,12.5,12.6
2814,28.2,-0.593,0.94,11.6,11.7
2815,28.2,-0.439,0.981,10.6,10.6
2816,28.2,-0.351,1.14,9.49,9.56
2817,28.2,-0.339,1.36,8.51,8.62
2818,28.2,-0.37,1.64,7.45,7.63
2819,28.2,-0.546,1.98,6.92,7.22
2820,28.3,-0.866,2.27,6.72,7.14
2821,28.3,-1.21,2.49,7.14,7.66
2822,28.3,-1.57,2.57,7.9,8.45
2823,28.3,-1.8,2.73,8.75,9.35
2824,28.3,-1.93,2.98,9.56,10.2
2825,28.3,-2.01,3.11,10.1,10.7
2826,28.3,-1.97,3.11,10.2,10.8
2827,28.3,-1.82,2.95,9.96,10.5
2828,28.3,-1.62,2.77,9.67,10.2
2829,28.3,-1.43,2.52,9.43,9.87
2830,28.4,-1.31,2.26,9.29,9.65
2831,28.4,-1.26,2.08,9.28,9.59
2832,28.4,-1.27,2.0,9.34,9.64
2833,28.4,-1.3,1.99,9.45,9.74
2834,28.4,-1.34,2.03,9.52,9.83
2835,28.4,-1.31,2.14,9.58,9.9
2836,28.4,-1.3,2.27,9.59,9.94
2837,28.4,-1.34,2.27,9.54,9.9
2838,28.4,-1.29,2.24,9.33,9.68
2839,28.4,-1.21,2.24,8.86,9.22
2840,28.5,-1.12,2.31,8.36,8.75
2841,28.5,-1.09,2.45,8.02,8.45
2842,28.5,-1.12,2.58,7.67,8.17
2843,28.5,-1.18,2.69,7.42,7.98
2844,28.5,-1.24,2.8,7.33,7.95
2845,28.5,-1.36,2.83,7.33,7.98
2846,28.5,-1.46,2.83,7.41,8.06
2847,28.5,-1.48,2.9,7.56,8.24
2848,28.5,-1.48,2.87,7.64,8.3
2849,28.5,-1.5,2.81,7.74,8.37
2850,28.6,-1.51,2.83,7.86,8.49
2851,28.6,-1.5,2.87,7.95,8.58
2852,28.6,-1.55,2.87,8.03,8.66
2853,28.6,-1.73,2.89,8.19,8.86
2854,28.6,-2.03,2.9,8.39,9.11
2855,28.6,-2.29,2.87,8.5,9.26
2856,28.6,-2.43,3.19,8.63,9.52
2857,28.6,-2.51,3.91,8.85,9.99
2858,28.6,-2.71,4.69,9.17,10.7
2859,28.6,-3.29,5.03,9.57,11.3
2860,28.7,-4.11,4.63,10.3,12.0
2861,28.7,-4.68,4.05,11.1,12.7
2862,28.7,-4.81,3.39,11.5,12.9
2863,28.7,-4.73,2.5,11.9,13.1
2864,28.7,-4.42,1.27,12.0,12.9
2865,28.7,-3.76,0.237,11.8,12.4
2866,28.7,-2.95,-0.572,11.4,11.8
2867,28.7,-2.28,-1.28,11.0,11.3
2868,28.7,-1.82,-1.68,10.6,10.9
2869,28.8,-1.63,-1.66,10.3,10.6
2870,28.8,-1.8,-1.19,9.82,10.1
2871,28.8,-2.25,-0.331,9.21,9.48
2872,28.8,-2.79,0.798,8.48,8.96
2873,28.8,-3.3,2.0,7.69,8.61
2874,28.8,-3.8,3.07,7.13,8.64
2875,28.8,-4.33,3.84,6.77,8.9
2876,28.8,-4.97,4.44,6.69,9.44
2877,28.8,-5.42,4.96,6.84,10.0
2878,28.8,-5.76,5.23,7.14,10.6
2879,28.9,-5.89,5.13,7.76,11.0
2880,28.9,-5.74,4.57,8.55,11.3
2881,28.9,-5.33,3.75,9.36,11.4
2882,28.9,-4.78,2.77,10.0,11.5
2883,28.9,-4.1,1.84,10.3,11.2
2884,28.9,-3.42,1.1,10.2,10.8
2885,28.9,-2.84,0.538,9.75,10.2
2886,28.9,-2.37,0.21,9.16,9.47
2887,28.9,-2.06,0.206,8.5,8.75
2888,28.9,-1.93,0.495,7.83,8.08
2889,29.0,-1.87,1.01,7.27,7.57
2890,29.0,-1.93,1.51,6.97,7.39
2891,29.0,-2.05,1.94,6.94,7.49
2892,29.0,-2.16,2.43,7.06,7.77
2893,29.0,-2.23,2.85,7.35,8.2
2894,29.0,-2.3,3.04,7.65,8.55
2895,29.0,-2.31,3.11,7.97,8.86
2896,29.0,-2.26,3.14,8.21,9.08
2897,29.0,-2.25,3.14,8.36,9.21
2898,29.0,-2.17,3.18,8.45,9.28
2899,29.1,-2.11,3.21,8.64,9.46
2900,29.1,-2.09,3.13,8.8,9.58
2901,29.1,-2.04,3.12,8.88,9.63
2902,29.1,-1.98,3.15,8.92,9.67
2903,29.1,-1.98,3.12,8.98,9.71
2904,29.1,-1.97,3.08,9.04,9.75
2905,29.1,-1.96,3.04,9.04,9.74
2906,29.1,-1.97,3.01,9.05,9.74
2907,29.1,-1.96,3.03,9.15,9.83
2908,29.1,-1.98,3.07,9.4,10.1
2909,29.2,-2.05,3.06,9.82,10.5
2910,29.2,-2.14,2.98,10.1,10.8
2911,29.2,-2.14,2.92,10.3,10.9
2912,29.2,-2.17,2.86,10.3,10.9
2913,29.2,-2.23,2.79,10.3,10.9
2914,29.2,-2.3,2.69,10.3,10.9
2915,29.2,-2.37,2.67,10.4,11.0
2916,29.2,-2.46,2.67,10.5,11.1
2917,29.2,-2.51,2.7,10.5,11.2
2918,29.2,-2.44,2.86,10.5,11.2
2919,29.3,-2.25,3.25,10.3,11.0
2920,29.3,-2.14,3.6,9.94,10.8
2921,29.3,-2.21,3.84,9.63,10.6
2922,29.3,-2.34,4.17,9.41,10.6
2923,29.3,-2.55,4.62,9.5,10.9
2924,29.3,-2.86,4.92,9.95,11.5
2925,29.3,-3.28,4.92,10.8,12.3
2926,29.3,-3.64,4.56,11.8,13.2
2927,29.3,-3.79,3.73,12.4,13.5
2928,29.3,-3.76,2.71,12.6,13.5
2929,29.4,-3.52,1.55,12.4,13.0
2930,29.4,-3.17,0.479,11.7,12.2
2931,29.4,-2.73,-0.356,10.9,11.2
2932,29.4,-2.27,-0.838,10.1,10.3
2933,29.4,-1.9,-0.882,9.53,9.76
2934,29.4,-1.74,-0.687,9.38,9.56
2935,29.4,-1.58,-0.0811,9.07,9.21
2936,29.4,-1.54,0.556,8.75,8.91
2937,29.4,-1.61,1.05,8.26,8.48
2938,29.4,-1.74,1.4,7.77,8.08
2939,29.5,-1.82,1.81,7.28,7.71
2940,29.5,-1.92,2.16,6.93,7.5
2941,29.5,-2.02,2.54,6.86,7.59
2942,29.5,-2.1,2.88,7.02,7.88
2943,29.5,-2.23,3.01,7.59,8.46
2944,29.5,-2.37,2.96,8.46,9.27
2945,29.5,-2.45,2.73,9.36,10.1
2946,29.5,-2.41,2.35,10.2,10.7
2947,29.5,-2.3,1.88,10.8,11.2
2948,29.5,-2.14,1.45,11.2,11.5
2949,29.6,-1.96,1.12,11.3,11.5
2950,29.6,-1.81,0.886,11.2,11.4
2951,29.6,-1.71,0.846,10.9,11.0
2952,29.6,-1.67,1.04,10.3,10.5
2953,29.6,-1.66,1.34,9.74,9.98
2954,29.6,-1.65,1.68,9.25,9.54
2955,29.6,-1.64,2.0,8.82,9.19
2956,29.6,-1.65,2.29,8.41,8.87
2957,29.6,-1.62,2.56,8.05,8.6
2958,29.6,-1.59,2.76,7.78,8.4
2959,29.7,-1.58,2.87,7.54,8.22
2960,29.7,-1.59,3.0,7.41,8.15
2961,29.7,-1.61,3.15,7.34,8.15
2962,29.7,-1.65,3.29,7.35,8.22
2963,29.7,-1.72,3.47,7.45,8.4
2964,29.7,-1.78,3.67,7.7,8.72
2965,29.7,-1.83,3.79,8.05,9.08
2966,29.7,-1.88,3.78,8.39,9.39
2967,29.7,-1.91,3.76,8.62,9.59
2968,29.7,-1.87,3.8,8.81,9.77
2969,29.8,-1.84,3.85,9.0,9.96
2970,29.8,-1.81,3.87,9.11,10.1
2971,29.8,-1.82,3.79,9.23,10.1
2972,29.8,-1.8,3.72,9.34,10.2
2973,29.8,-1.78,3.74,9.34,10.2
2974,29.8,-1.81,3.69,9.31,10.2
2975,29.8,-1.87,3.66,9.33,10.2
2976,29.8,-1.94,3.73,9.41,10.3
2977,29.8,-2.04,3.8,9.45,10.4
2978,29.8,-2.1,3.84,9.44,10.4
2979,29.9,-2.09,3.89,9.33,10.3
2980,29.9,-2.03,3.88,9.17,10.2
2981,29.9,-1.93,3.78,9.01,9.95
2982,29.9,-1.77,3.69,8.79,9.69
2983,29.9,-1.59,3.73,8.63,9.53
2984,29.9,-1.32,4.0,8.49,9.48
2985,29.9,-1.09,4.37,8.34,9.48
2986,29.9,-1.13,4.66,8.26,9.55
2987,29.9,-1.43,4.81,8.29,9.69
2988,29.9,-1.91,4.99,8.67,10.2
2989,30.0,-2.48,5.05,9.62,11.1
2990,30.0,-3.02,4.56,10.6,12.0
2991,30.0,-3.44,3.63,11.1,12.2
2992,30.0,-3.58,2.55,11.0,11.8
2993,30.0,-3.6,1.74,10.7,11.4
2994,30.0,-3.64,1.44,10.6,11.3
2995,30.0,-3.64,1.28,10.7,11.3
2996,30.0,-3.45,0.976,10.8,11.4
2997,30.0,-2.92,0.655,10.9,11.3
2998,30.0,-2.12,0.276,10.7,10.9
2999,30.1,-1.24,-0.156,10.1,10.1
3000,30.1,-0.489,-0.49,9.29,9.32
3001,30.1,-0.127,-0.617,8.52,8.54
3002,30.1,-0.319,-0.279,7.9,7.91
3003,30.1,-0.821,0.634,7.55,7.62
3004,30.1,-1.62,1.64,7.6,7.94
3005,30.1,-2.54,2.46,8.05,8.79
3006,30.1,-3.19,3.2,8.65,9.76
3007,30.1,-3.47,3.65,9.18,10.5
3008,30.1,-3.41,3.6,9.65,10.9
3009,30.2,-3.03,3.17,9.85,10.8
3010,30.2,-2.41,2.65,9.72,10.4
3011,30.2,-1.77,2.12,9.39,9.78
3012,30.2,-1.26,1.69,8.96,9.2
3013,30.2,-0.853,1.44,8.61,8.78
3014,30.2,-0.564,1.34,8.37,8.49
3015,30.2,-0.428,1.37,8.2,8.32
3016,30.2,-0.349,1.55,8.09,8.25
3017,30.2,-0.36,1.88,8.06,8.28
3018,30.2,-0.417,2.24,8.06,8.37
3019,30.3,-0.45,2.55,7.94,8.35
3020,30.3,-0.445,2.89,7.73,8.27
3021,30.3,-0.468,3.17,7.66,8.3
3022,30.3,-0.561,3.28,7.7,8.39
3023,30.3,-0.613,3.32,7.75,8.45
3024,30.3,-0.636,3.43,7.87,8.61
3025,30.3,-0.738,3.55,8.18,8.94
3026,30.3,-0.864,3.61,8.53,9.3
3027,30.3,-0.906,3.73,8.88,9.68
3028,30.3,-0.887,3.82,9.11,9.92
3029,30.4,-0.854,3.83,9.27,10.1
3030,30.4,-0.817,3.75,9.46,10.2
3031,30.4,-0.783,3.66,9.65,10.4
3032,30.4,-0.75,3.61,9.86,10.5
3033,30.4,-0.721,3.54,10.1,10.7
3034,30.4,-0.677,3.51,10.3,10.9
3035,30.4,-0.633,3.51,10.4,11.0
3036,30.4,-0.587,3.46,10.5,11.1
3037,30.4,-0.517,3.36,10.5,11.0
3038,30.4,-0.447,3.32,10.4,10.9
3039,30.5,-0.4,3.39,10.3,10.8
3040,30.5,-0.419,3.42,10.2,10.8
3041,30.5,-0.492,3.46,10.1,10.7
3042,30.5,-0.55,3.61,9.95,10.6
3043,30.5,-0.597,3.82,9.73,10.5
3044,30.5,-0.694,3.99,9.61,10.4
3045,30.5,-0.85,4.06,9.61,10.5
3046,30.5,-0.89,4.17,9.63,10.5
3047,30.5,-0.786,4.28,9.65,10.6
3048,30.5,-0.751,4.23,9.6,10.5
3049,30.6,-0.913,3.99,9.78,10.6
3050,30.6,-1.11,3.86,10.4,11.1
3051,30.6,-1.23,3.85,11.2,11.9
3052,30.6,-1.35,3.4,12.0,12.6
3053,30.6,-1.34,3.16,12.3,12.8
3054,30.6,-1.64,2.72,12.7,13.1
3055,30.6,-1.95,2.12,13.3,13.6
3056,30.6,-2.07,1.62,13.7,14.0
3057,30.6,-2.04,0.928,14.1,14.2
3058,30.6,-2.09,0.181,14.3,14.5
3059,30.7,-1.91,-0.174,14.2,14.3
3060,30.7,-1.72,-0.428,13.8,13.9
3061,30.7,-1.61,-0.758,13.2,13.3
3062,30.7,-1.47,-1.0,12.3,12.5
3063,30.7,-1.26,-0.947,11.2,11.3
3064,30.7,-1.05,-0.827,9.94,10.0
3065,30.7,-0.921,-0.677,8.84,8.91
3066,30.7,-0.708,-0.437,7.73,7.78
3067,30.7,-0.632,-0.19,7.11,7.14
3068,30.7,-0.748,-0.0248,6.76,6.8
3069,30.8,-0.98,0.148,6.71,6.78
3070,30.8,-1.24,0.351,6.94,7.06
3071,30.8,-1.49,0.438,7.46,7.62
3072,30.8,-1.77,0.418,8.2,8.4
3073,30.8,-1.99,0.401,8.9,9.13
3074,30.8,-2.02,0.388,9.3,9.53
3075,30.8,-1.99,0.318,9.58,9.79
3076,30.8,-1.97,0.265,9.7,9.9
3077,30.8,-2.0,0.385,9.79,10.0
3078,30.8,-2.11,0.587,9.87,10.1
3079,30.9,-2.23,0.757,9.86,10.1
3080,30.9,-2.34,0.906,9.74,10.1
3081,30.9,-2.41,1.08,9.5,9.86
3082,30.9,-2.41,1.26,9.23,9.62
3083,30.9,-2.35,1.43,8.86,9.27
3084,30.9,-2.23,1.58,8.39,8.83
3085,30.9,-2.11,1.76,7.96,8.42
3086,30.9,-2.03,1.96,7.67,8.17
3087,30.9,-1.99,2.19,7.47,8.03
3088,30.9,-1.99,2.42,7.35,7.99
3089,31.0,-1.97,2.65,7.26,7.98
3090,31.0,-1.96,2.87,7.27,8.06
3091,31.0,-2.03,3.01,7.34,8.19
3092,31.0,-2.08,3.05,7.47,8.34
3093,31.0,-2.11,3.08,7.62,8.49
3094,31.0,-2.15,3.07,7.84,8.69
3095,31.0,-2.22,3.03,8.1,8.92
3096,31.0,-2.27,3.02,8.33,9.15
3097,31.0,-2.28,3.04,8.49,9.31
3098,31.0,-2.27,3.07,8.52,9.34
3099,31.1,-2.25,3.11,8.38,9.21
3100,31.1,-2.16,3.16,8.09,8.95
3101,31.1,-2.03,3.26,7.7,8.6
3102,31.1,-1.96,3.33,7.27,8.23
3103,31.1,-1.96,3.35,6.98,7.99
3104,31.1,-2.13,3.35,7.12,8.15
3105,31.1,-2.37,3.41,7.72,8.76
3106,31.1,-2.64,3.35,8.56,9.56
3107,31.1,-2.8,3.2,9.26,10.2
3108,31.1,-2.82,3.38,9.85,10.8
3109,31.2,-2.77,3.59,10.2,11.2
3110,31.2,-3.2,3.39,10.7,11.6
3111,31.2,-3.65,3.4,10.8,11.9
3112,31.2,-3.94,3.63,11.1,12.3
3113,31.2,-4.18,3.59,11.8,13.1
3114,31.2,-4.38,3.28,12.6,13.7
3115,31.2,-4.28,2.87,13.0,14.0
3116,31.2,-4.29,2.16,13.3,14.1
3117,31.2,-4.25,1.54,13.3,14.1
3118,31.2,-4.11,0.974,13.3,14.0
3119,31.3,-3.82,0.339,13.2,13.7
3120,31.3,-3.45,-0.278,13.0,13.5
3121,31.3,-2.87,-0.557,12.8,13.1
3122,31.3,-2.27,-0.821,12.3,12.5
3123,31.3,-1.75,-1.11,11.4,11.6
3124,31.3,-1.28,-1.08,10.2,10.3
3125,31.3,-0.932,-0.724,8.79,8.87
3126,31.3,-0.753,-0.188,7.45,7.49
3127,31.3,-0.854,0.424,6.46,6.53
3128,31.3,-1.11,1.21,5.99,6.21
3129,31.4,-1.59,1.89,5.98,6.47
3130,31.4,-2.23,2.47,6.31,7.13
3131,31.4,-2.82,3.03,6.79,7.95
3132,31.4,-3.32,3.54,7.41,8.86
3133,31.4,-3.69,3.91,8.11,9.73
3134,31.4,-3.84,4.05,8.77,10.4
3135,31.4,-3.84,3.83,9.47,10.9
3136,31.4,-3.5,3.4,9.69,10.8
3137,31.4,-2.93,2.79,9.61,10.4
3138,31.4,-2.31,2.06,9.44,9.93
3139,31.5,-1.71,1.29,9.22,9.46
3140,31.5,-1.2,0.701,8.98,9.09
3141,31.5,-0.77,0.351,8.77,8.81
3142,31.5,-0.457,0.13,8.67,8.68
3143,31.5,-0.336,0.0507,8.77,8.77
3144,31.5,-0.388,0.125,9.01,9.02
3145,31.5,-0.589,0.276,9.21,9.23
3146,31.5,-0.769,0.516,9.17,9.22
3147,31.5,-0.88,0.885,8.94,9.03
3148,31.5,-1.04,1.26,8.69,8.84
3149,31.6,-1.23,1.61,8.46,8.7
3150,31.6,-1.38,1.96,8.19,8.53
3151,31.6,-1.49,2.31,7.97,8.43
3152,31.6,-1.6,2.55,7.92,8.47
3153,31.6,-1.67,2.66,7.98,8.58
3154,31.6,-1.67,2.71,8.12,8.72
3155,31.6,-1.66,2.71,8.38,8.96
3156,31.6,-1.66,2.66,8.68,9.22
3157,31.6,-1.63,2.56,8.93,9.44
3158,31.6,-1.65,2.43,9.2,9.66
3159,31.7,-1.67,2.35,9.43,9.86
3160,31.7,-1.74,2.34,9.61,10.0
3161,31.7,-1.8,2.37,9.68,10.1
3162,31.7,-1.81,2.44,9.71,10.2
3163,31.7,-1.8,2.5,9.74,10.2
3164,31.7,-1.77,2.53,9.74,10.2
3165,31.7,-1.7,2.58,9.71,10.2
3166,31.7,-1.63,2.66,9.73,10.2
3167,31.7,-1.6,2.69,9.8,10.3
3168,31.7,-1.6,2.7,9.9,10.4
3169,31.8,-1.59,2.72,9.99,10.5
3170,31.8,-1.56,2.73,10.1,10.5
3171,31.8,-1.46,2.86,10.2,10.6
3172,31.8,-1.24,3.12,10.1,10.6
3173,31.8,-1.03,3.3,9.83,10.4
3174,31.8,-0.989,3.38,9.58,10.2
3175,31.8,-1.26,3.5,9.61,10.3
3176,31.8,-1.64,3.8,10.2,11.0
3177,31.8,-1.94,4.02,11.4,12.3
3178,31.8,-2.04,3.88,12.8,13.5
3179,31.9,-1.94,3.26,14.2,14.7
3180,31.9,-2.14,2.05,15.5,15.7
3181,31.9,-2.12,1.01,15.9,16.1
3182,31.9,-1.77,0.425,15.3,15.4
3183,31.9,-1.29,0.286,14.3,14.4
3184,31.9,-1.07,0.122,13.5,13.6
3185,31.9,-1.06,-0.196,12.8,12.9
3186,31.9,-0.991,-0.287,11.9,12.0
3187,31.9,-0.843,-0.0904,11.0,11.0
3188,31.9,-0.655,0.206,10.1,10.1
3189,32.0,-0.475,0.468,9.28,9.3
3190,32.0,-0.285,0.746,8.23,8.27
3191,32.0,-0.0641,1.08,7.28,7.36
3192,32.0,0.103,1.36,6.57,6.71
3193,32.0,0.164,1.5,6.17,6.35
3194,32.0,0.0723,1.59,6.07,6.28
3195,32.0,-0.181,1.72,6.28,6.52
3196,32.0,-0.487,1.86,6.7,6.97
3197,32.0,-0.786,2.01,7.33,7.64
3198,32.0,-0.98,2.09,7.99,8.32
3199,32.1,-1.14,2.0,8.68,8.98
3200,32.1,-1.32,1.8,9.17,9.44
3201,32.1,-1.44,1.7,9.75,10.0
3202,32.1,-1.55,1.62,10.4,10.6
3203,32.1,-1.63,1.51,11.0,11.2
3204,32.1,-1.79,1.3,11.7,11.9
3205,32.1,-1.8,1.24,12.0,12.2
3206,32.1,-1.88,1.18,12.1,12.3
3207,32.1,-1.86,1.2,11.5,11.7
3208,32.1,-1.71,1.35,10.6,10.8
3209,32.2,-1.55,1.48,9.55,9.79
3210,32.2,-1.38,1.64,8.45,8.72
3211,32.2,-1.27,1.9,7.53,7.87
3212,32.2,-1.14,2.13,6.78,7.2
3213,32.2,-1.12,2.34,6.34,6.85
3214,32.2,-1.05,2.66,6.01,6.65
3215,32.2,-1.06,2.99,5.95,6.75
3216,32.2,-1.07,3.32,6.12,7.04
3217,32.2,-1.06,3.6,6.31,7.34
3218,32.2,-1.07,3.8,6.35,7.47
3219,32.3,-1.08,3.95,6.37,7.57
3220,32.3,-1.08,4.11,6.51,7.77
3221,32.3,-1.13,4.09,6.78,7.99
3222,32.3,-1.17,4.02,6.99,8.14
3223,32.3,-1.22,3.99,7.24,8.36
3224,32.3,-1.33,3.98,7.62,8.7
3225,32.3,-1.49,3.83,8.04,9.03
3226,32.3,-1.7,3.6,8.44,9.33
3227,32.3,-1.86,3.55,8.76,9.63
3228,32.3,-1.99,3.65,9.08,9.99
3229,32.4,-2.18,3.81,9.43,10.4
3230,32.4,-2.31,4.07,9.77,10.8
3231,32.4,-2.28,4.52,9.93,11.1
3232,32.4,-2.39,4.85,9.98,11.4
3233,32.4,-2.75,4.77,9.96,11.4
3234,32.4,-3.03,4.7,10.2,11.7
3235,32.4,-3.11,4.71,10.9,12.3
3236,32.4,-3.17,4.24,11.5,12.6
3237,32.4,-3.26,3.25,12.0,12.9
3238,32.4,-3.3,2.21,12.1,12.8
3239,32.5,-3.09,1.31,11.8,12.3
3240,32.5,-2.92,0.552,11.3,11.6
3241,32.5,-2.99,0.0943,11.1,11.4
3242,32.5,-3.0,0.297,11.1,11.5
3243,32.5,-2.72,0.629,10.9,11.3
3244,32.5,-2.23,0.769,10.6,10.9
3245,32.5,-1.57,0.822,10.2,10.4
3246,32.5,-0.808,0.642,9.5,9.55
3247,32.5,-0.167,0.409,8.73,8.74
3248,32.5,0.199,0.294,8.07,8.08
3249,32.6,0.173,0.469,7.53,7.54
3250,32.6,-0.0783,0.91,7.21,7.26
3251,32.6,-0.757,1.65,7.21,7.44
3252,32.6,-1.47,2.57,7.33,7.9
3253,32.6,-2.05,3.49,7.61,8.62
3254,32.6,-2.57,4.23,8.16,9.55
3255,32.6,-2.97,4.77,8.93,10.6
3256,32.6,-3.12,4.98,9.68,11.3
3257,32.6,-3.05,4.71,10.3,11.7
3258,32.6,-2.68,4.15,10.6,11.7
3259,32.7,-2.03,3.46,10.6,11.3
3260,32.7,-1.34,2.74,10.2,10.6
3261,32.7,-0.747,2.14,9.73,9.99
3262,32.7,-0.213,1.64,9.29,9.44
3263,32.7,0.274,1.32,8.84,8.94
3264,32.7,0.616,1.29,8.43,8.55
3265,32.7,0.737,1.43,8.17,8.33
3266,32.7,0.669,1.64,8.12,8.31
3267,32.7,0.539,2.0,8.09,8.35
3268,32.7,0.346,2.45,8.17,8.54
3269,32.8,0.15,2.85,8.32,8.8
3270,32.8,-0.0317,3.12,8.53,9.08
3271,32.8,-0.205,3.26,8.65,9.24
3272,32.8,-0.345,3.38,8.66,9.3
3273,32.8,-0.391,3.54,8.62,9.32
3274,32.8,-0.418,3.68,8.6,9.36
3275,32.8,-0.466,3.7,8.62,9.39
3276,32.8,-0.531,3.68,8.78,9.53
3277,32.8,-0.575,3.6,8.98,9.69
3278,32.8,-0.626,3.49,9.18,9.85
3279,32.9,-0.694,3.38,9.46,10.1
3280,32.9,-0.735,3.32,9.71,10.3
3281,32.9,-0.738,3.32,9.89,10.5
3282,32.9,-0.723,3.3,9.93,10.5
3283,32.9,-0.68,3.32,9.91,10.5
3284,32.9,-0.633,3.42,9.82,10.4
3285,32.9,-0.615,3.5,9.63,10.3
3286,32.9,-0.577,3.57,9.42,10.1
3287,32.9,-0.525,3.73,9.27,10.0
3288,32.9,-0.492,3.96,9.22,10.0
3289,33.0,-0.563,4.05,9.4,10.3
3290,33.0,-0.57,4.16,9.5,10.4
3291,33.0,-0.389,4.48,9.49,10.5
3292,33.0,-0.206,4.82,9.39,10.6
3293,33.0,-0.242,4.91,9.31,10.5
3294,33.0,-0.532,4.78,9.33,10.5
3295,33.0,-0.932,4.77,9.65,10.8
3296,33.0,-1.22,5.02,10.2,11.4
3297,33.0,-1.38,5.39,10.9,12.2
3298,33.0,-1.53,5.4,11.6,12.9
3299,33.1,-1.72,4.92,12.2,13.2
3300,33.1,-1.75,4.21,12.5,13.3
3301,33.1,-1.83,3.42,13.0,13.6
3302,33.1,-1.69,2.84,13.2,13.6
3303,33.1,-1.38,2.48,13.0,13.3
3304,33.1,-1.12,1.99,12.4,12.6
3305,33.1,-0.857,1.53,11.4,11.6
3306,33.1,-0.555,1.32,10.2,10.3
3307,33.1,-0.203,1.15,8.96,9.04
3308,33.1,0.0689,1.2,7.7,7.8
3309,33.2,0.445,1.48,6.6,6.78
3310,33.2,0.752,1.82,5.8,6.13
3311,33.2,1.0,2.15,5.33,5.83
3312,33.2,1.19,2.46,5.23,5.9
3313,33.2,1.2,2.57,5.54,6.23
3314,33.2,1.03,2.62,5.99,6.62
3315,33.2,0.828,2.82,6.42,7.06
3316,33.2,0.576,2.97,6.7,7.35
3317,33.2,0.199,3.03,6.85,7.49
3318,33.2,-0.269,3.24,7.08,7.79
3319,33.3,-0.783,3.6,7.92,8.74
3320,33.3,-1.3,3.81,9.32,10.2
3321,33.3,-1.76,3.65,11.0,11.7
3322,33.3,-1.99,3.26,12.3,12.9
3323,33.3,-2.01,2.88,13.3,13.8
3324,33.3,-1.91,2.51,13.6,13.9
3325,33.3,-1.64,2.18,12.8,13.1
3326,33.3,-1.3,2.04,11.5,11.7
3327,33.3,-1.05,2.06,10.0,10.3
3328,33.3,-0.905,2.27,8.83,9.16
3329,33.4,-0.791,2.55,7.82,8.26
3330,33.4,-0.699,2.84,7.11,7.69
3331,33.4,-0.503,3.12,6.54,7.27
3332,33.4,-0.398,3.21,6.21,7.0
3333,33.4,-0.384,3.3,6.08,6.93
3334,33.4,-0.433,3.48,6.1,7.04
3335,33.4,-0.452,3.69,6.04,7.09
3336,33.4,-0.616,3.78,6.15,7.25
3337,33.4,-0.816,3.94,6.36,7.53
3338,33.4,-1.01,4.11,6.63,7.87
3339,33.5,-1.19,4.18,7.01,8.25
3340,33.5,-1.34,4.22,7.5,8.71
3341,33.5,-1.44,4.24,7.93,9.11
3342,33.5,-1.51,4.35,8.34,9.52
3343,33.5,-1.62,4.47,8.62,9.85
3344,33.5,-1.88,4.48,8.95,10.2
3345,33.5,-2.19,4.48,9.43,10.7
3346,33.5,-2.46,4.64,9.86,11.2
3347,33.5,-2.75,4.61,10.5,11.8
3348,33.6,-3.02,4.45,11.2,12.4
3349,33.6,-3.03,4.53,11.8,13.0
3350,33.6,-2.91,4.74,11.9,13.2
3351,33.6,-2.81,4.82,11.4,12.7
3352,33.6,-2.73,4.73,10.7,12.0
3353,33.6,-2.52,4.91,10.1,11.5
3354,33.6,-2.25,5.23,9.54,11.1
3355,33.6,-2.12,5.44,9.13,10.8
3356,33.6,-2.3,5.34,9.08,10.8
3357,33.6,-2.76,4.75,9.68,11.1
3358,33.7,-3.25,3.96,11.0,12.1
3359,33.7,-3.56,2.94,12.5,13.3
3360,33.7,-3.43,1.99,13.5,14.0
3361,33.7,-3.4,0.656,14.4,14.8
3362,33.7,-3.17,-0.388,14.8,15.2
3363,33.7,-2.62,-0.962,14.6,14.8
3364,33.7,-1.95,-1.2,13.4,13.6
3365,33.7,-1.29,-0.958,11.6,11.7
3366,33.7,-0.943,-0.524,9.68,9.74
3367,33.7,-0.873,0.0877,7.95,7.99
3368,33.8,-1.02,0.787,6.54,6.67
3369,33.8,-1.36,1.53,5.53,5.89
3370,33.8,-1.84,2.28,5.15,5.92
3371,33.8,-2.54,2.86,5.43,6.64
3372,33.8,-3.18,3.53,5.9,7.57
3373,33.8,-3.68,4.26,6.42,8.54
3374,33.8,-4.05,4.85,6.85,9.32
3375,33.8,-4.16,5.25,7.29,9.9
3376,33.8,-4.06,5.43,7.71,10.3
3377,33.8,-3.82,5.36,8.04,10.4
3378,33.9,-3.51,5.04,8.34,10.4
3379,33.9,-3.11,4.54,8.53,10.2
3380,33.9,-2.7,3.94,8.63,9.86
3381,33.9,-2.27,3.37,8.55,9.46
3382,33.9,-1.77,2.85,8.24,8.9
3383,33.9,-1.29,2.35,7.85,8.29
3384,33.9,-0.875,1.87,7.53,7.81
3385,33.9,-0.573,1.49,7.28,7.46
3386,33.9,-0.389,1.4,7.11,7.25
3387,33.9,-0.342,1.55,7.0,7.18
3388,34.0,-0.474,1.86,7.03,7.29
3389,34.0,-0.711,2.32,7.09,7.49
3390,34.0,-0.985,2.86,7.14,7.75
3391,34.0,-1.31,3.34,7.26,8.1
3392,34.0,-1.63,3.74,7.42,8.47
3393,34.0,-1.87,4.11,7.55,8.8
3394,34.0,-2.03,4.48,7.66,9.1
3395,34.0,-2.12,4.74,7.84,9.4
3396,34.0,-2.17,4.79,7.98,9.55
3397,34.0,-2.23,4.72,8.13,9.66
3398,34.1,-2.24,4.6,8.31,9.76
3399,34.1,-2.19,4.49,8.44,9.8
3400,34.1,-2.09,4.42,8.5,9.8
3401,34.1,-1.98,4.33,8.5,9.74
3402,34.1,-1.91,4.23,8.5,9.69
3403,34.1,-1.81,4.27,8.48,9.67
3404,34.1,-1.66,4.39,8.39,9.61
3405,34.1,-1.56,4.47,8.28,9.54
3406,34.1,-1.55,4.63,8.28,9.61
3407,34.1,-1.57,4.83,8.38,9.8
3408,34.2,-1.64,4.97,8.6,10.1
3409,34.2,-1.73,5.08,8.89,10.4
3410,34.2,-1.81,5.18,9.15,10.7
3411,34.2,-1.86,5.34,9.38,11.0
3412,34.2,-1.8,5.62,9.71,11.4
3413,34.2,-1.64,6.02,10.1,11.9
3414,34.2,-1.52,6.34,10.3,12.2
3415,34.2,-1.62,6.38,10.3,12.2
3416,34.2,-1.99,6.27,10.7,12.6
3417,34.2,-2.35,6.31,11.4,13.3
3418,34.3,-2.54,6.39,12.3,14.1
3419,34.3,-2.65,6.34,13.3,15.0
3420,34.3,-2.8,5.94,14.3,15.8
3421,34.3,-2.96,5.36,15.0,16.2
3422,34.3,-3.13,4.6,15.3,16.3
3423,34.3,-3.12,3.86,15.1,15.9
3424,34.3,-2.9,3.26,14.6,15.2
3425,34.3,-2.57,2.67,13.9,14.4
3426,34.3,-2.25,2.13,13.1,13.4
3427,34.3,-1.89,1.55,12.1,12.3
3428,34.4,-1.47,1.17,10.8,11.0
3429,34.4,-0.986,1.1,9.42,9.54
3430,34.4,-0.63,1.16,8.1,8.2
3431,34.4,-0.453,1.17,6.95,7.06
3432,34.4,-0.457,1.26,6.08,6.22
3433,34.4,-0.61,1.48,5.64,5.86
3434,34.4,-0.999,1.75,5.62,5.97
3435,34.4,-1.53,2.07,5.98,6.51
3436,34.4,-2.12,2.52,6.44,7.23
3437,34.4,-2.65,3.05,6.89,7.99
3438,34.5,-3.05,3.5,7.42,8.75
3439,34.5,-3.38,3.8,8.07,9.53
3440,34.5,-3.62,3.84,8.85,10.3
3441,34.5,-3.8,3.61,9.48,10.8
3442,34.5,-3.8,3.27,9.88,11.1
3443,34.5,-3.76,3.04,10.1,11.2
3444,34.5,-3.65,2.94,10.0,11.1
3445,34.5,-3.55,2.84,9.83,10.8
3446,34.5,-3.56,2.68,9.53,10.5
3447,34.5,-3.5,2.66,9.03,10.0
3448,34.6,-3.32,2.76,8.3,9.36
3449,34.6,-3.1,2.85,7.55,8.64
3450,34.6,-2.94,2.9,6.87,8.01
3451,34.6,-2.78,3.02,6.17,7.41
3452,34.6,-2.63,3.22,5.54,6.92
3453,34.6,-2.53,3.42,5.09,6.63
3454,34.6,-2.48,3.57,4.84,6.51
3455,34.6,-2.36,3.91,4.49,6.41
3456,34.6,-2.24,4.26,4.27,6.43
3457,34.6,-2.27,4.5,4.21,6.57
3458,34.7,-2.34,4.7,4.37,6.83
3459,34.7,-2.4,4.82,4.6,7.08
3460,34.7,-2.39,4.91,4.88,7.33
3461,34.7,-2.34,5.01,5.19,7.58
3462,34.7,-2.23,5.07,5.49,7.8
3463,34.7,-2.1,5.07,5.74,7.94
3464,34.7,-2.0,5.04,5.91,8.02
3465,34.7,-1.89,5.05,5.93,8.02
3466,34.7,-1.84,5.03,5.96,8.01
3467,34.7,-1.92,5.0,6.02,8.06
3468,34.8,-2.1,5.03,6.28,8.31
3469,34.8,-2.4,5.11,6.78,8.82
3470,34.8,-2.7,5.19,7.33,9.38
3471,34.8,-2.89,5.35,7.78,9.88
3472,34.8,-3.03,5.53,8.32,10.4
3473,34.8,-3.12,5.84,8.92,11.1
3474,34.8,-3.07,6.41,9.36,11.8
3475,34.8,-3.09,6.86,9.53,12.1
3476,34.8,-3.42,6.96,9.35,12.1
3477,34.8,-3.68,6.88,9.28,12.1
3478,34.9,-3.74,6.81,9.66,12.4
3479,34.9,-3.9,6.45,10.4,12.9
3480,34.9,-4.2,5.62,11.1,13.1
3481,34.9,-4.58,4.58,11.9,13.5
3482,34.9,-5.01,3.43,12.8,14.2
3483,34.9,-5.35,2.27,14.1,15.2
3484,34.9,-5.4,1.24,15.3,16.3
3485,34.9,-5.04,0.373,16.1,16.9
3486,34.9,-4.36,-0.478,15.9,16.5
3487,34.9,-3.16,-0.765,14.4,14.8
3488,35.0,-2.05,-0.616,12.5,12.7
3489,35.0,-1.5,-0.699,10.0,10.2
3490,35.0,-1.19,-0.109,7.48,7.57
3491,35.0,-1.29,1.04,5.36,5.61
3492,35.0,-1.78,2.07,3.91,4.77
3493,35.0,-2.54,2.98,3.21,5.06
3494,35.0,-3.45,4.06,3.29,6.26
3495,35.0,-4.41,5.35,4.22,8.11
3496,35.0,-5.2,6.26,5.64,9.9
3497,35.0,-5.75,6.58,7.14,11.3
3498,35.1,-5.98,6.39,8.57,12.2
3499,35.1,-5.91,5.83,9.74,12.8
3500,35.1,-5.56,5.12,10.5,12.9
3501,35.1,-5.04,4.35,10.7,12.6
3502,35.1,-4.36,3.82,10.4,11.9
3503,35.1,-3.67,3.36,9.77,11.0
3504,35.1,-3.03,2.75,8.94,9.83
3505,35.1,-2.4,2.17,8.12,8.74
3506,35.1,-1.88,1.77,7.39,7.82
3507,35.1,-1.39,1.6,6.59,6.93
3508,35.2,-0.955,1.61,6.04,6.33
3509,35.2,-0.741,1.68,5.69,5.98
3510,35.2,-0.748,1.86,5.66,6.0
3511,35.2,-0.956,2.2,6.0,6.46
3512,35.2,-1.31,2.67,6.49,7.13
3513,35.2,-1.65,3.18,6.91,7.78
3514,35.2,-1.95,3.65,7.31,8.4
3515,35.2,-2.22,4.02,7.67,8.94
3516,35.2,-2.41,4.24,7.96,9.34
3517,35.2,-2.55,4.32,8.16,9.58
3518,35.3,-2.62,4.41,8.26,9.73
3519,35.3,-2.64,4.51,8.32,9.83
3520,35.3,-2.63,4.56,8.52,10.0
3521,35.3,-2.56,4.46,8.77,10.2
3522,35.3,-2.47,4.3,9.09,10.3
3523,35.3,-2.36,4.14,9.47,10.6
3524,35.3,-2.3,3.99,9.87,10.9
3525,35.3,-2.36,3.84,10.3,11.3
3526,35.3,-2.5,3.78,10.6,11.5
3527,35.3,-2.58,3.84,10.8,11.8
3528,35.4,-2.58,4.16,11.0,12.1
3529,35.4,-2.53,4.77,10.9,12.2
3530,35.4,-2.56,5.16,10.7,12.2
3531,35.4,-2.72,5.55,10.4,12.1
3532,35.4,-2.99,5.99,10.3,12.3
3533,35.4,-3.36,6.4,10.6,12.8
3534,35.4,-3.69,7.04,11.3,13.8
3535,35.4,-4.22,6.94,12.5,14.9
3536,35.4,-4.76,5.88,13.7,15.6
3537,35.4,-4.89,4.82,14.9,16.4
3538,35.5,-4.91,3.71,15.9,17.1
3539,35.5,-4.68,2.55,16.4,17.2
3540,35.5,-4.21,1.61,16.1,16.7
3541,35.5,-3.52,0.988,14.9,15.3
3542,35.5,-2.84,0.72,13.1,13.5
3543,35.5,-2.42,0.564,11.3,11.6
3544,35.5,-2.0,0.732,9.32,9.56
3545,35.5,-1.68,1.19,7.62,7.89
3546,35.5,-1.51,1.61,6.22,6.6
3547,35.5,-1.44,1.95,5.2,5.74
3548,35.6,-1.47,2.23,4.6,5.32
3549,35.6,-1.42,2.55,4.34,5.23
3550,35.6,-1.38,2.76,4.43,5.4
3551,35.6,-1.55,2.71,4.88,5.79
3552,35.6,-1.86,2.6,5.55,6.4
3553,35.6,-2.22,2.57,6.28,7.14
3554,35.6,-2.51,2.56,6.95,7.82
3555,35.6,-2.74,2.41,7.73,8.55
3556,35.6,-2.91,2.09,8.68,9.39
3557,35.6,-3.01,1.74,9.66,10.3
3558,35.7,-3.05,1.36,10.6,11.1
3559,35.7,-2.98,0.977,11.1,11.6
3560,35.7,-2.73,0.591,11.3,11.6
3561,35.7,-2.41,0.322,11.0,11.3
3562,35.7,-2.07,0.277,10.2,10.4
3563,35.7,-1.82,0.41,9.25,9.44
3564,35.7,-1.66,0.717,8.3,8.5
3565,35.7,-1.66,1.17,7.6,7.86
3566,35.7,-1.74,1.51,7.13,7.49
3567,35.7,-1.74,1.81,6.76,7.21
3568,35.8,-1.65,2.1,6.46,6.99
3569,35.8,-1.64,2.22,6.39,6.96
3570,35.8,-1.64,2.23,6.45,7.02
3571,35.8,-1.63,2.25,6.51,7.08
3572,35.8,-1.63,2.23,6.49,7.06
3573,35.8,-1.6,2.2,6.59,7.13
3574,35.8,-1.6,2.1,6.82,7.32
3575,35.8,-1.65,1.97,7.08,7.54
3576,35.8,-1.71,1.97,7.36,7.81
3577,35.8,-1.77,1.98,7.65,8.1
3578,35.9,-1.86,1.98,7.99,8.43
3579,35.9,-1.99,1.99,8.32,8.78
3580,35.9,-2.12,2.0,8.64,9.12
3581,35.9,-2.24,2.02,8.97,9.47
3582,35.9,-2.38,2.05,9.37,9.88
3583,35.9,-2.58,1.94,9.89,10.4
3584,35.9,-2.77,1.88,10.5,11.0
3585,35.9,-2.88,2.01,11.0,11.6
3586,35.9,-2.91,2.15,11.4,12.0
3587,35.9,-3.15,2.15,11.5,12.1
3588,36.0,-3.37,2.13,11.4,12.1
3589,36.0,-3.56,2.16,11.3,12.0
3590,36.0,-3.79,2.02,11.4,12.1
3591,36.0,-4.0,1.76,11.5,12.3
3592,36.0,-4.11,1.44,11.7,12.5
3593,36.0,-4.3,0.971,11.9,12.7
3594,36.0,-4.21,0.639,12.0,12.8
3595,36.0,-4.02,0.34,12.2,12.9
3596,36.0,-3.82,-0.00823,12.4,13.0
3597,36.0,-3.57,-0.137,12.3,12.8
3598,36.1,-3.28,-0.192,11.9,12.3
3599,36.1,-2.98,-0.327,11.2,11.6
3600,36.1,-2.65,-0.416,10.2,10.6
3601,36.1,-2.29,-0.378,9.21,9.49
3602,36.1,-2.07,-0.323,8.48,8.73
3603,36.1,-2.0,-0.182,8.01,8.26
3604,36.1,-1.99,0.0901,7.85,8.1
3605,36.1,-1.99,0.452,7.83,8.09
3606,36.1,-2.05,0.794,7.94,8.24
3607,36.1,-2.19,1.09,8.18,8.54
3608,36.2,-2.36,1.3,8.64,9.05
3609,36.2,-2.52,1.38,9.08,9.52
3610,36.2,-2.64,1.39,9.48,9.94
3611,36.2,-2.7,1.43,10.1,10.5
3612,36.2,-2.75,1.36,10.9,11.3
3613,36.2,-2.73,1.2,11.7,12.0
3614,36.2,-2.55,1.01,12.3,12.6
3615,36.2,-2.47,0.644,12.8,13.1
3616,36.2,-2.36,0.567,13.0,13.2
3617,36.2,-2.23,0.786,12.9,13.1
3618,36.3,-2.25,0.981,12.5,12.7
3619,36.3,-2.27,1.22,11.8,12.1
3620,36.3,-2.25,1.57,11.0,11.4
3621,36.3,-2.21,1.97,10.3,10.7
3622,36.3,-2.17,2.25,9.57,10.1
3623,36.3,-2.16,2.43,8.89,9.46
3624,36.3,-2.15,2.56,8.27,8.92
3625,36.3,-2.16,2.73,7.81,8.55
3626,36.3,-2.25,2.91,7.53,8.38
3627,36.3,-2.36,3.07,7.3,8.26
3628,36.4,-2.45,3.26,7.21,8.29
3629,36.4,-2.55,3.44,7.21,8.39
3630,36.4,-2.66,3.55,7.26,8.5
3631,36.4,-2.75,3.6,7.34,8.63
3632,36.4,-2.82,3.63,7.48,8.78
3633,36.4,-2.9,3.63,7.63,8.93
3634,36.4,-2.99,3.59,7.75,9.05
3635,36.4,-3.07,3.51,7.84,9.12
3636,36.4,-3.12,3.42,7.98,9.23
3637,36.4,-3.15,3.32,8.19,9.38
3638,36.5,-3.16,3.11,8.48,9.57
3639,36.5,-3.17,2.79,8.73,9.7
3640,36.5,-3.13,2.52,8.9,9.76
3641,36.5,-3.06,2.28,9.02,9.79
3642,36.5,-3.0,2.02,9.0,9.7
3643,36.5,-2.95,1.83,8.91,9.56
3644,36.5,-2.91,1.77,8.78,9.42
3645,36.5,-2.94,1.79,8.67,9.33
3646,36.5,-3.09,1.86,8.7,9.42
3647,36.5,-3.33,2.01,8.82,9.64
3648,36.6,-3.53,2.12,8.86,9.77
3649,36.6,-3.73,2.29,8.82,9.85
3650,36.6,-3.95,2.51,8.84,10.0
3651,36.6,-4.16,2.71,8.93,10.2
3652,36.6,-4.25,2.87,9.01,10.4
3653,36.6,-4.24,2.97,8.97,10.4
3654,36.6,-4.06,2.96,8.81,10.1
3655,36.6,-3.8,2.91,8.62,9.86
3656,36.6,-3.49,2.91,8.4,9.55
3657,36.6,-3.21,3.02,8.19,9.3
3658,36.7,-2.96,3.18,7.87,8.99
3659,36.7,-2.71,3.39,7.48,8.65
3660,36.7,-2.48,3.67,7.2,8.46
3661,36.7,-2.36,3.76,7.21,8.47
3662,36.7,-2.35,3.63,7.82,8.93
3663,36.7,-2.32,3.29,9.01,9.87
3664,36.7,-2.13,2.74,10.6,11.2
3665,36.7,-1.81,1.91,12.4,12.7
3666,36.7,-1.35,0.992,13.9,14.0
3667,36.7,-0.638,0.48,14.5,14.5
3668,36.8,-0.336,-0.0269,14.8,14.8
3669,36.8,-0.129,0.0925,14.2,14.2
3670,36.8,0.0608,0.816,13.6,13.6
3671,36.8,-0.0205,1.28,13.0,13.1
3672,36.8,-0.135,1.53,12.6,12.7
3673,36.8,-0.097,1.82,12.2,12.4
3674,36.8,-0.0145,2.08,11.9,12.0
3675,36.8,0.0225,2.15,11.7,11.9
3676,36.8,0.000449,2.07,11.6,11.8
3677,36.8,-0.00254,2.05,11.4,11.6
3678,36.9,-0.0237,2.1,11.2,11.4
3679,36.9,-0.123,2.12,11.1,11.3
3680,36.9,-0.181,2.16,11.0,11.2
3681,36.9,-0.162,2.17,10.8,11.0
3682,36.9,-0.0949,2.09,10.5,10.7
3683,36.9,-0.0254,1.93,10.2,10.4
3684,36.9,0.0439,1.83,9.99,10.2
3685,36.9,0.137,1.78,9.72,9.88
3686,36.9,0.181,1.7,9.45,9.6
3687,36.9,0.209,1.63,9.15,9.3
3688,37.0,0.351,1.68,8.8,8.97
3689,37.0,0.439,1.63,8.5,8.66
3690,37.0,0.512,1.63,8.18,8.36
3691,37.0,0.605,1.76,8.0,8.21
3692,37.0,0.709,1.89,7.92,8.17
3693,37.0,0.832,2.01,7.82,8.11
3694,37.0,0.857,2.1,7.78,8.11
3695,37.0,0.854,2.21,7.75,8.11
3696,37.0,0.873,2.36,7.66,8.06
3697,37.0,0.872,2.54,7.62,8.08
3698,37.1,0.8,2.71,7.7,8.2
3699,37.1,0.697,2.81,7.78,8.3
3700,37.1,0.686,2.98,7.84,8.42
3701,37.1,0.626,3.08,8.06,8.65
3702,37.1,0.482,3.01,8.37,8.91
3703,37.1,0.36,2.97,8.69,9.19
3704,37.1,0.209,2.93,8.95,9.42
3705,37.1,0.0338,2.94,9.22,9.68
3706,37.1,-0.244,2.88,9.71,10.1
3707,37.1,-0.529,2.8,10.1,10.5
3708,37.2,-0.731,2.81,10.4,10.8
3709,37.2,-0.855,2.84,10.5,10.9
3710,37.2,-1.01,2.79,10.5,11.0
3711,37.2,-1.1,2.85,10.3,10.8
3712,37.2,-1.0,3.01,9.81,10.3
3713,37.2,-0.906,3.07,9.27,9.8
3714,37.2,-0.883,3.0,8.85,9.39
3715,37.2,-0.872,3.01,8.6,9.15
3716,37.2,-0.868,3.08,8.48,9.06
3717,37.2,-0.926,3.11,8.41,9.01
3718,37.3,-0.995,3.17,8.4,9.03
3719,37.3,-1.07,3.15,8.44,9.08
3720,37.3,-1.09,3.08,8.4,9.01
3721,37.3,-1.09,3.0,8.32,8.91
3722,37.3,-1.13,2.93,8.16,8.74
3723,37.3,-1.14,2.99,7.97,8.59
3724,37.3,-1.21,3.16,7.94,8.63
3725,37.3,-1.41,3.25,8.07,8.82
3726,37.3,-1.68,3.27,8.3,9.08
3727,37.3,-1.91,3.37,8.41,9.26
3728,37.4,-2.08,3.64,8.51,9.49
3729,37.4,-2.31,3.94,8.75,9.87
3730,37.4,-2.64,4.13,9.09,10.3
3731,37.4,-3.04,4.21,9.36,10.7
3732,37.4,-3.41,4.3,9.71,11.1
3733,37.4,-3.62,4.4,10.3,11.8
3734,37.4,-3.71,4.3,11.2,12.5
3735,37.4,-3.77,3.79,11.8,13.0
3736,37.4,-3.75,3.21,12.2,13.2
3737,37.4,-3.68,2.58,12.5,13.2
3738,37.5,-3.67,1.85,12.8,13.5
3739,37.5,-3.63,1.3,13.1,13.7
3740,37.5,-3.5,0.94,13.4,13.9
3741,37.5,-3.4,0.592,13.5,13.9
3742,37.5,-3.01,0.396,13.0,13.3
3743,37.5,-2.54,0.243,11.8,12.1
3744,37.5,-2.08,0.179,10.1,10.4
3745,37.5,-1.88,0.317,8.47,8.68
3746,37.5,-1.8,0.726,6.86,7.13
3747,37.5,-1.89,1.28,5.66,6.11
3748,37.6,-2.23,1.83,5.0,5.77
3749,37.6,-2.65,2.41,4.9,6.07
3750,37.6,-3.17,2.89,5.25,6.78
3751,37.6,-3.64,3.32,5.76,7.58
3752,37.6,-3.99,3.78,6.21,8.29
3753,37.6,-4.26,4.11,6.79,9.01
3754,37.6,-4.41,4.21,7.44,9.62
3755,37.6,-4.45,4.06,8.14,10.1
3756,37.6,-4.24,3.76,8.79,10.5
3757,37.6,-4.01,3.13,9.51,10.8
3758,37.7,-3.73,2.34,9.99,10.9
3759,37.7,-3.19,1.71,10.1,10.8
3760,37.7,-2.55,1.11,9.98,10.4
3761,37.7,-1.97,0.594,9.78,10.0
3762,37.7,-1.5,0.209,9.49,9.61
