Time (s),Acceleration x (m/s^2),Acceleration y (m/s^2),Acceleration z (m/s^2),Absolute acceleration (m/s^2)
0.011583292,-3.325185242,4.871918793,7.742798767,9.733621236
0.021645292,-3.315754852,4.982688446,7.922275543,9.928940738
0.031708292,-3.112627258,5.003495178,7.906857605,9.861126185
0.041770292,-2.784359894,4.993166656,7.829618225,9.694704474
0.051833292,-2.273771667,4.920118561,7.764503632,9.469166853
0.061895292,-1.851948853,4.798122253,7.72139328,9.277478423
0.071958292,-1.65211441,4.675078125,7.491471405,8.983762091
0.082020292,-1.665287018,4.583019562,7.243886261,8.732189721
0.092083292,-1.766326904,4.571194153,7.035519562,8.574045849
0.102145292,-1.741927643,4.549638977,6.935377808,8.475434624
0.112208292,-1.632954254,4.526287537,6.85200119,8.372797547
0.122271292,-1.477427673,4.60083252,6.718029785,8.275407941
0.132333292,-1.32923584,4.773722992,6.63435379,8.280697394
0.142396292,-1.162482605,4.814288635,6.520740051,8.188332656
0.152458292,-1.003213806,4.729564819,6.341412964,7.974254805
0.162521292,-0.836460571,4.717290344,6.196663971,7.83269678
0.172583292,-0.689316559,4.513863373,6.130651245,7.644279204
0.182646292,-0.686771851,4.325105896,6.290219421,7.664532403
0.192708292,-0.708327026,4.22990387,6.69752243,7.953025879
0.202771292,-0.445174255,4.12108017,7.102280731,8.223373606
0.212833292,-0.296832733,3.968547363,7.424710236,8.42400142
0.222896292,-0.278570709,3.806135101,7.378306732,8.306845146
0.232958292,-0.29832962,3.625011749,6.90933197,7.808237895
0.243021292,-0.464933167,3.432961121,6.545139313,7.4054192
0.253083292,-0.574954376,3.403173065,6.520141296,7.377289609
0.263146292,-0.695902863,3.440295868,6.622528381,7.495185029
0.273209292,-0.891246643,3.645369415,6.850653992,7.811177816
0.283271292,-1.109043732,4.086502075,7.319778442,8.456277766
0.293334292,-1.348695374,4.625082092,8.094417572,9.419658136
0.303396292,-1.805545349,5.234015808,9.295519867,10.81950115
0.313459292,-2.154918823,5.820496216,11.02487366,12.6518651
0.323521292,-2.030377808,6.232439575,14.54225922,15.9512708
0.333584292,-2.068548431,6.571933594,18.86362289,20.08246679
0.343646292,-2.47001358,6.36760849,23.32165237,24.30117023
0.353709292,-2.598147125,5.521717529,26.25929352,26.95904726
0.363771292,-2.342927856,4.649780731,27.13467316,27.62969886
0.373834292,-2.116897888,4.159250793,25.74825623,26.1677917
0.383896292,-1.914369049,4.199816437,22.86465271,23.32585712
0.393959292,-1.74342453,4.667144623,19.87192612,20.48695233
0.404022292,-1.638792114,5.389243011,17.86130722,18.72847766
0.414084292,-1.444795532,5.924230499,16.72995987,17.80661389
0.424147292,-0.937350769,5.977220306,15.88870926,17.00167259
0.434209292,-0.350570984,5.488786011,14.87516693,15.85939038
0.444272292,-0.120349731,4.723128204,13.70205643,14.49374949
0.454334292,-0.31704071,4.045337677,12.78985336,13.41810794
0.464397292,-0.610430603,3.456013184,12.37461685,12.86265116
0.474459292,-0.897832947,2.99781601,11.96282318,12.36536062
0.484522292,-0.887205048,2.736309814,11.14941467,11.51451135
0.494584292,-0.5533992,2.787203979,10.03797592,10.43243583
0.504647292,-0.167651367,2.984194336,8.681197357,9.181323999
0.514709292,0.26330246,3.154091034,7.047494659,7.72559379
0.524772292,0.571212158,3.481160889,5.518274689,6.549512959
0.534834292,0.834813995,3.912563782,4.129462738,5.749568006
0.544897292,0.925225983,4.08710083,2.986888733,5.146060689
0.554959292,1.108594666,3.659889221,2.190544739,4.407069037
0.565022292,1.296603699,3.351979523,1.751956787,3.99828719
0.575085292,0.754431152,3.365900574,1.409169617,3.726152445
0.585147292,0.210911407,3.128643951,1.112187195,3.327139455
0.595210292,-0.321531372,2.737207947,0.957558746,2.917637489
0.605272292,-0.38260437,2.407593384,0.937350769,2.611803681
0.615335292,-0.357456665,2.109413452,1.029858398,2.374449136
0.625397292,-0.186512146,1.709295502,1.076561279,2.028660169
0.635460292,0.01526825,1.321452026,1.056053925,1.691661452
0.645522292,-0.032033386,1.004261627,0.958157501,1.388392362
0.655585292,-0.091609497,0.688268738,1.029409332,1.241688257
0.665647292,-0.150137787,0.361797638,1.380130005,1.434642017
0.675710292,-0.242795105,0.228724365,1.801503754,1.83212447
0.685772292,-0.314196625,0.302520905,2.374811554,2.414532736
0.695835292,-0.523910522,1.153201904,1.963167572,2.336318425
0.705897292,-0.785566406,2.26059906,1.582808533,2.869269165
0.715960292,-1.037642212,3.124302979,1.215173035,3.509218712
0.726023292,-1.297352142,3.350931702,0.913101196,3.70750855
0.736085292,-1.303339691,3.092119904,0.814306641,3.452969035
0.746148292,-0.948128357,2.476150818,1.015188904,2.839168675
0.756210292,-0.445623322,1.780098267,1.447789307,2.337396813
0.766273292,-0.185015259,1.074765015,2.446213074,2.678303359
0.776335292,-1.53745285,0.438288574,4.272265778,4.561591062
0.786398292,-3.171155548,0.593964844,5.828280029,6.661671701
0.796460292,-3.947441254,1.312171326,7.268435211,8.374618586
0.806523292,-4.631818085,2.476899261,9.134454803,10.53693662
0.816585292,-5.093158722,3.350931702,11.05675735,12.62619865
0.826648292,-5.251679077,3.65539856,12.88745041,14.38848323
0.836710292,-5.612728271,3.898642731,14.91842697,16.40919246
0.846773292,-6.20265152,4.494852905,17.12618591,18.76120552
0.856835292,-6.52088974,5.39178772,18.66723129,20.49533854
0.866898292,-6.890022125,5.923332367,19.60607895,21.60917867
0.876960292,-7.092700653,6.010301514,20.6127356,22.61227533
0.887023292,-6.810687103,5.511838074,21.25115799,22.98646414
0.897086292,-6.164480896,4.401447144,21.5881073,22.87837272
0.907148292,-5.673352203,3.752396851,21.89691513,22.92907106
0.917211292,-5.718707886,4.009262695,21.31851791,22.43339059
0.927273292,-5.658832397,4.032763824,19.48737579,20.68920935
0.937336292,-5.142406311,3.694617004,17.43185028,18.5462649
0.947399083,-4.283941498,3.175496521,15.27543457,16.17945717
0.957462083,-3.493585052,2.522554321,13.23517731,13.91899189
0.967524083,-2.963088226,1.619182892,11.33383118,11.82613099
0.977587083,-2.374811554,1.594334564,9.975106659,10.37710872
0.987649083,-1.578617249,1.607207794,8.522527313,8.815249351
0.997712083,-0.744851074,1.331331482,7.147935791,7.308914605
1.007774083,-0.109572144,0.940643921,6.522985382,6.591369762
1.017837083,0.184416504,0.37916153,6.239624634,6.25385389
1.027899083,0.838855591,-0.280366974,6.223158875,6.285697314
1.037962083,1.706601105,-0.944835205,6.101312256,6.405561032
1.048024083,2.032174072,-1.727557526,6.51624939,7.041000822
1.058087083,1.853745117,-2.092498627,7.094945984,7.625823233
1.068150083,1.124162292,-1.867815857,7.351811829,7.668221052
1.078212083,0.065114594,-1.113684082,6.868766327,6.958770222
1.088275083,-0.710871735,-0.013172607,5.726042633,5.770015284
1.098337083,-1.138981476,0.949026489,4.596940613,4.83009245
1.108400083,-1.273252258,1.663341064,3.628753967,4.189955867
1.118462083,-1.444945221,1.916015625,2.910397797,3.772187416
1.128525083,-1.079255676,2.067201233,2.301015015,3.276092772
1.138587083,-0.3954776,2.170187073,2.08980423,3.038650388
1.148650083,0.232765961,1.980232086,1.794468384,2.682464518
1.158712083,0.126636658,2.046244812,1.108145599,2.330480925
1.168775083,-0.411793671,2.755320282,0.657133484,2.862374591
1.178837083,-0.55115387,2.839445343,0.473016357,2.930864193
1.188900083,-0.446820831,2.458637238,0.396076355,2.530103239
1.198962083,-0.324674835,2.146835632,0.357456665,2.20047546
1.209025083,-0.357007599,2.02304306,0.547112274,2.125909097
1.219087083,-1.004261627,1.94700119,1.655856628,2.746127496
1.229150083,-1.808239746,2.164798279,3.153941345,4.23124433
1.239212083,-1.628613281,2.561772766,4.189637604,5.17379205
1.249275083,-1.878443756,2.062710571,5.777535553,6.415858704
1.259338083,-1.763482819,1.532363434,7.723339233,8.068951497
1.269400083,-1.931134186,0.880169678,10.28855484,10.50515771
1.279463083,-2.350262604,0.071700897,12.49825974,12.71752223
1.289525083,-2.878963165,-0.573607178,14.36412964,14.66102569
1.299588083,-3.667822723,-1.122964783,15.66028427,16.12322787
1.309650083,-5.339696045,-1.379830627,17.02230194,17.89343594
1.319713083,-7.840096436,-1.093625793,18.53400833,20.15372408
1.329775083,-9.68366272,-0.256566467,20.24989014,22.44765468
1.339838083,-9.829459534,0.536783752,21.53646469,23.67964786
1.349900083,-8.278085632,0.685424652,21.73031158,23.26376905
1.359963083,-6.460864563,0.084723816,21.8588942,22.79388524
1.370025083,-5.564827881,-0.64934967,21.99720657,22.69947271
1.380088083,-5.879024506,-1.159788208,22.07324844,22.87217381
1.390150083,-7.039112091,-1.665885773,22.29523682,23.43932292
1.400213083,-8.114924927,-2.03591629,21.70531357,23.26193455
1.410275083,-8.538693695,-2.210752716,20.20064255,22.04229291
1.420338083,-8.616681519,-2.177671509,18.38626556,20.42166044
1.430400083,-8.274942169,-1.908830566,16.377892,18.44867606
1.440463083,-7.419171753,-1.397493896,14.13884811,16.02822899
1.450525083,-6.095773773,-0.826581116,11.69562881,13.21474281
1.460588083,-4.339625702,-0.176932068,9.567653961,10.50731452
1.470651083,-2.538571014,0.53588562,7.961793365,8.373868269
1.480713083,-1.205293579,1.213077393,6.764582977,6.977382907
1.490776083,-0.492176514,1.564845886,5.826783142,6.053295148
1.500838083,-0.158370667,1.566642151,5.235063629,5.466748586
1.510901083,0.029638367,1.317859497,5.121599579,5.288517215
1.520963083,-0.234711914,1.008752289,5.358407135,5.457581689
1.531026083,-0.766256561,0.753682709,5.716612244,5.816772497
1.541088083,-0.920136566,0.266296234,5.916446686,5.993488664
1.551151083,-1.171613617,-0.03278183,6.21552475,6.325069251
1.561213083,-1.572929077,-0.457299042,6.5267276,6.729145671
1.571276083,-1.877395935,-0.980012054,6.236630859,6.586395342
1.581338083,-1.845661926,-1.139879608,5.207071838,5.640867894
1.591401083,-1.58430542,-0.925375671,3.98995285,4.391590548
1.601463083,-1.00980011,-0.40490799,3.007396088,3.19813664
1.611526083,-0.789458313,0.231568451,2.307152252,2.449452978
1.621588083,-0.679137726,0.506247253,1.922302551,2.100657381
1.631651083,-0.477507019,0.507295074,1.679657135,1.818408463
1.641713083,-0.367934875,0.49726593,1.491049347,1.614273097
1.651776083,-0.476758575,0.539927216,1.68848877,1.83570544
1.661838083,-0.672551422,0.558039551,2.227517853,2.392816194
1.671901083,-0.674796753,0.137264557,2.199376373,2.304658033
1.681963083,-0.311053162,-0.492026825,1.485211487,1.595210841
1.692026083,0.514629822,-0.598754883,1.079555054,1.337456682
1.702088083,1.020128632,-0.254021759,0.990190887,1.444184016
1.712151083,0.440533905,-0.020806732,1.511856079,1.574868834
1.722214083,0.048349457,0.400417328,3.034190369,3.060879432
1.732276083,0.141755219,1.5527211,6.001020813,6.200265168
1.742339083,0.585282898,3.066373444,10.94059891,11.37725391
1.752401083,1.784738617,3.486399994,14.23105637,14.76019113
1.762464083,3.440894623,2.655777283,14.29227905,14.9386127
1.772526083,4.116439819,1.935924225,12.62459702,13.4191404
1.782589083,2.48992218,1.913321228,11.6957785,12.10998536
1.792651083,-1.409319305,2.302062836,12.55109985,12.83805989
1.802714083,-6.96786026,2.731819153,15.00255203,16.76575319
1.812776083,-13.02396652,3.409160614,17.59950165,22.15826118
1.822839083,-20.61408279,5.095853119,21.93164291,30.52712055
1.832901083,-22.35331604,5.555696869,25.11986298,34.08143221
1.842964083,-12.05877365,3.815415802,26.30240387,29.18540507
1.853026083,-1.572030945,4.729714508,24.45898727,24.96164135
1.863089083,3.228486328,7.325466614,24.77273483,26.03409257
1.873151083,2.367626495,6.452481995,21.48452271,22.55714731
1.883214083,-1.149160309,6.589147797,21.18125336,22.21222483
1.893276083,-4.0052211,7.347919922,22.72708878,24.21888287
1.903339083,-4.814588013,6.169121246,22.56677216,23.88508991
1.913401083,-3.564687195,5.098697205,20.36410263,21.29320042
1.923464083,-2.684068451,4.419709167,18.02955734,18.75641198
1.933526083,-2.801274719,3.896996155,15.98211502,16.68717231
1.943588417,-3.698957977,3.156635742,14.11025757,14.92467782
1.953650417,-4.387376404,2.245181122,12.51412674,13.44965717
1.963713417,-3.762126617,1.986668701,11.66164948,12.41348129
1.973776417,-2.053280182,1.953437805,9.951156464,10.34685429
1.983838417,-0.246537323,1.640887756,6.92100769,7.117137116
1.993901417,1.142574005,1.465901642,3.924688568,4.342524996
2.003963417,2.041005707,1.565145264,1.648970947,3.055239627
2.014026417,2.185605011,1.92948761,0.568966827,2.970440195
2.024088417,1.844763794,2.020797729,0.305664368,2.753217686
2.034151417,1.353635101,1.37369339,0.63767395,2.031253205
2.044213417,0.403111725,0.572709045,1.373394012,1.541656845
2.054276417,-0.874331818,-0.02454895,2.332898712,2.49148052
2.064338417,-1.938169556,-0.417781219,3.243904266,3.801836038
2.074401417,-2.562371521,-0.745449829,3.585344238,4.469467146
2.084463417,-2.564766541,-1.070274353,2.837050323,3.971444213
2.094526417,-2.069745941,-1.123413849,1.22744751,2.655660808
2.104588417,-1.244811401,-0.902622986,-0.096100159,1.5406229
2.114651417,-0.474812622,-0.567320251,-0.878223724,1.148292734
2.124713417,-0.607436829,0.131875763,-0.87283493,1.071546328
2.134776417,-0.569266205,0.871038666,-0.669108582,1.237125161
2.144838417,0.022902374,1.078357544,-0.609382782,1.238840945
2.154901417,0.586330719,0.836759949,-0.543370056,1.15723893
2.164963417,0.687819672,0.652193756,-0.353265381,1.011557722
2.175026417,0.374970245,0.603993988,-0.040116577,0.712053904
2.185088417,0.00583786,0.561781769,0.4352948,0.710714007
2.195151417,-0.312100983,0.49966095,1.14437027,1.287109709
2.205213417,-0.85651886,0.587827606,2.221081238,2.452012993
2.215276417,-0.795296173,1.093326416,2.206411743,2.58768457
2.225338417,-0.09355545,1.272952881,2.103126526,2.46014285
2.235401417,0.446521454,1.134041748,2.783910828,3.039011614
2.245463417,1.133592682,1.154698792,3.992198181,4.307668509
2.255526417,1.727856903,1.264420624,5.566474457,5.964049536
2.265588417,1.960173798,1.379381561,6.866221619,7.272549355
2.275651417,1.945354614,1.524729309,7.953859863,8.329051012
2.285713417,1.861828308,1.862427063,9.373956757,9.736842634
2.295776417,1.632954254,2.606529694,10.81785416,11.24662195
2.305839417,1.012644196,3.7477565,12.17687805,12.7807467
2.315901417,-0.337248688,4.797224121,14.62623459,15.39655267
2.325964417,-1.410067749,5.642666016,17.54726028,18.48605729
2.336026417,-1.588047638,6.018983459,20.13193542,21.07237246
2.346089417,-1.146765289,6.105054474,22.79624496,23.62743205
2.356151417,-0.305215302,6.537954254,25.43480804,26.26342442
2.366214417,0.593366089,7.111411743,27.28166748,28.19953263
2.376276417,1.561403046,7.639663239,27.84314987,28.91441559
2.386339417,2.634820862,8.056396637,27.59661255,28.86902894
2.396401417,3.490591278,8.382418671,27.11506393,28.59503213
2.406464417,3.851041718,8.494685211,26.10511414,27.72124065
2.416526417,3.407364349,8.357570343,24.59819778,26.20172605
2.426589417,2.262844391,8.132588196,23.04412949,24.54162503
2.436651417,1.113983459,7.909851379,21.62882263,23.05672736
2.446714417,0.628093872,7.724387054,20.42622345,21.84699663
2.456776417,1.030008087,7.362739105,18.76707367,20.18598271
2.466839417,1.577120361,6.680308228,16.80465454,18.15241694
2.476901417,2.113455048,6.069129181,15.07574982,16.38838777
2.486964417,2.527044983,5.525010681,13.39743988,14.71064563
2.497026417,2.834804993,4.853806458,11.38442596,12.6964842
2.507089417,3.079845428,4.259542236,9.130263519,10.53521997
2.517151417,3.144211578,3.886667633,6.547384644,8.237748322
2.527214417,2.829715576,3.688180389,3.758683777,5.978099076
2.537276417,2.345771942,3.624113617,1.415157166,4.543073334
2.547339417,2.046993256,3.698359222,-0.098794556,4.228215071
2.557401417,1.446442108,3.664080505,-0.776585083,4.015067261
2.567464417,0.844693451,3.394940186,-0.753832397,3.578741283
2.577526417,0.532742157,2.844834137,-0.126486969,2.897049262
2.587589417,0.277223511,2.139949951,0.809516602,2.304681279
2.597651417,0.059127045,1.502276001,1.656455383,2.237001034
2.607714417,-0.282462616,1.171912994,2.204316101,2.512404161
2.617776417,-0.47151947,0.961450653,2.017654266,2.28421687
2.627839417,-0.578546906,0.716859283,1.048868866,1.395969073
2.637901417,-0.731678467,0.55818924,-0.241747284,0.951509514
2.647964417,-0.539029083,0.597407684,-1.425335999,1.636774573
2.658026417,-0.390687561,0.767903137,-2.223625946,2.384706344
2.668089417,-0.392633514,0.819695435,-2.62688736,2.779676039
2.678151417,-0.184566193,0.785716095,-2.524500275,2.650380369
2.688214417,0.130528564,0.697250061,-1.985770569,2.108667851
2.698276417,0.417481842,0.617016907,-1.505120087,1.679400913
2.708339417,0.435444489,0.544567566,-1.063238983,1.271472718
2.718401417,0.275277557,0.469723206,-0.516426086,0.750408906
2.728464417,0.03278183,0.411494293,0.216749268,0.466242905
2.738526417,-0.162412262,0.376018066,1.005459137,1.085686605
2.748589417,0.129031677,0.37212616,1.892514496,1.93306445
2.758651417,0.785267029,0.451311493,2.799328766,2.9422046
2.768714417,1.255738678,0.561931458,3.589236145,3.84386039
2.778776417,1.434017944,0.684676208,4.050427094,4.35099398
2.788839417,1.564845886,0.808468781,4.336931305,4.68095477
2.798902417,1.891316986,1.168320465,4.894072723,5.375313988
2.808964417,2.541714478,1.460812225,5.715115356,6.423147856
2.819027417,3.281326447,1.589843903,7.234904938,8.101762545
2.829089417,3.849245453,2.358495483,9.826465759,10.8138162
2.839152417,4.39366333,4.133803711,13.70579865,14.97469623
2.849214417,4.305646362,6.143823853,17.37422012,18.9248167
2.859277417,3.731889496,7.481442261,19.46686844,21.18626782
2.869339417,2.768642578,8.83178421,20.67365891,22.65095951
2.879402417,1.666035461,9.985135803,22.66466858,24.82268746
2.889464417,1.270408173,10.19814285,25.25742691,27.26818052
2.899527417,1.203497314,9.745334473,27.40246628,29.10867754
2.909589417,0.867595825,9.786049805,28.54069931,30.18428416
2.919652417,0.083376617,10.57101746,28.65865402,30.54622419
2.929714417,-0.668360138,10.93311447,28.54548935,30.57490244
2.939777833,-1.632205811,10.34199371,27.91724579,29.81599474
2.949839833,-3.012635193,9.753267975,26.58142365,28.47409858
2.959902833,-4.893623657,9.601932678,24.97780838,27.20359489
2.969964833,-6.087690582,9.160800018,22.97856583,25.4753748
2.980027833,-5.894143066,8.583450623,20.94699051,23.39215592
2.990089833,-4.96697113,7.954907684,18.91616364,21.11332767
3.000152833,-3.516487427,7.361242218,16.76783112,18.64708372
3.010214833,-2.196382599,6.508914642,13.95817383,15.55701395
3.020277833,-1.193917236,5.557343445,10.69945038,12.11559916
3.030339833,-0.459694061,4.711452484,7.699688416,9.038490186
3.040402833,0.165705414,4.087998962,5.210664368,6.624969204
3.050464833,0.438587952,3.416794739,3.292253723,4.765058264
3.060527833,0.609682159,2.688110046,1.595083008,3.184640915
3.070589833,0.283061371,2.031126251,0.09131012,2.05278716
3.080652833,-0.404458923,1.312021637,-0.894689484,1.638736424
3.090714833,-0.958007813,0.779578857,-1.425335999,1.886028863
3.100777833,-1.221759338,0.370778961,-1.541943512,2.001939738
3.110839833,-1.109642487,0.146994324,-1.496288452,1.868633969
3.120902833,-0.95591217,-0.013022919,-1.672771454,1.926681606
3.130964833,-0.842597809,-0.202828217,-2.195933533,2.360769881
3.141027833,-0.759071503,-0.380359039,-2.724783783,2.85399881
3.151089833,-0.611478424,-0.391136627,-3.07730072,3.161751642
3.161152833,-0.293539581,-0.31704071,-3.201542358,3.23056555
3.171214833,0.309705963,-0.189206543,-3.108585663,3.129699941
3.181277833,0.959205322,0.112715607,-2.596201172,2.770025304
3.191339833,1.329684906,0.297880554,-1.925146637,2.358597962
3.201402833,1.390159149,0.206420746,-1.567689972,2.105422483
3.211464833,1.190923462,-0.045205994,-1.509760437,1.923465324
3.221527833,0.867895203,-0.254919891,-1.368005219,1.640019668
3.231589833,0.513432312,-0.428708496,-0.895437927,1.117681885
3.241652833,0.195792847,-0.499361572,-0.142503662,0.554981182
3.251714833,0.16735199,-0.419876862,0.760867767,0.884998885
3.261777833,0.625399475,-0.171094208,1.745220795,1.861771563
3.271839833,1.073866882,0.241896973,2.541265411,2.769428482
3.281902833,0.953367462,0.562679901,3.039279785,3.234615866
3.291964833,0.566122742,0.610879669,3.270848236,3.375221046
3.302027833,0.530496826,0.530197449,3.497027893,3.57655425
3.312089833,0.768950958,0.529449005,3.853436737,3.964918223
3.322152833,0.839903412,0.651445313,4.169729004,4.303075493
3.332214833,0.955762482,1.003662872,5.077591095,5.263340423
3.342277833,1.287322998,1.630858612,6.706803131,7.02126118
3.352339833,1.995350647,2.714455261,8.800948334,9.423713872
3.362402833,3.077600098,4.322411499,11.76852722,12.90941891
3.372464833,3.29734314,6.287674713,15.21780441,16.79252501
3.382527833,2.01600769,8.411308594,17.83002228,19.81726756
3.392589833,0.377814331,10.3939357,18.97738632,21.64065236
3.402652833,-0.347427521,12.16146011,19.92117371,23.34255727
3.412714833,0.094603271,13.46180603,22.26440094,26.01793075
3.422777833,1.269060974,13.59547806,25.9410553,29.31528423
3.432839833,2.318378906,12.96813263,29.39901443,32.21567001
3.442902833,2.817890167,12.18466187,32.27678009,34.61498263
3.452964833,2.921175385,11.5869548,33.97769302,36.0176958
3.463027833,2.800526276,10.95451996,33.606465,35.45756541
3.473089833,2.281555481,10.54078033,31.36697205,33.16927013
3.483152833,1.446891174,10.51548294,27.5734108,29.54592795
3.493214833,0.4153862,10.39707916,23.71353745,25.89601628
3.503277833,-0.324974213,9.94576767,20.60689774,22.88379639
3.513339833,0.059875488,9.413773956,18.13089661,20.42919815
3.523402833,1.296603699,8.967851257,16.24945908,18.60506537
3.533464833,2.204016724,7.994275818,13.90967468,16.19398609
3.543527833,2.540966034,6.939120026,10.76456497,13.05694276
3.553589833,2.402354279,5.974675598,7.805069275,10.11865411
3.563652833,2.196981354,4.878804474,5.229525146,7.481804155
3.573714833,1.816772003,3.807033234,2.944377136,5.144270529
3.583777833,1.283880157,2.859952698,1.274898834,3.384234733
3.593839833,0.894539795,2.068548431,0.141306152,2.258110158
3.603902833,0.651145935,1.445394287,-0.466280365,1.652444569
3.613964833,0.433199158,1.029409332,-0.784069519,1.364591549
3.624027833,-0.015717316,0.675844574,-0.89394104,1.12077808
3.634089833,-0.42122406,0.240699463,-0.929117889,1.048153611
3.644152833,-0.669407959,-0.103883972,-1.02731369,1.230557724
3.654214833,-0.720601501,-0.329015808,-1.348096619,1.563611978
3.664277833,-0.802331543,-0.4352948,-2.045795746,2.240200371
3.674339833,-1.078058167,-0.343685303,-2.738854523,2.963385411
3.684402833,-1.263372803,-0.102237396,-3.1054422,3.354151842
3.694464833,-0.983305206,0.127983856,-3.083737335,3.239244503
3.704527833,-0.301473083,0.341140594,-2.893482971,2.929079485
3.714589833,0.264499969,0.505798187,-2.455942841,2.521397881
3.724652833,0.68916687,0.632135468,-1.87679718,2.096881942
3.734714833,0.91384964,0.809217224,-1.282682648,1.770657633
3.744777833,1.025068359,0.830622711,-0.759520569,1.522356963
3.754839833,0.95591217,0.595012665,-0.474064178,1.221697587
3.764902833,0.53708313,0.387693787,-0.079484711,0.667145097
3.774964833,0.265847168,0.396226044,0.511636047,0.699600771
3.785027833,0.129031677,0.458346863,1.321751404,1.404904906
3.795089833,-0.018561401,0.606239319,2.258503418,2.338526957
3.805152833,0.094603271,0.908161469,3.095712433,3.227559837
3.815214833,0.468675385,1.146465912,3.799399109,3.996182465
3.825277833,1.0086026,1.349743195,4.400399323,4.711963507
3.835339833,1.664089508,1.673968964,5.128036194,5.645185665
3.845402833,2.08740921,1.964215393,5.809269562,6.47788794
3.855464833,2.328108673,2.333347778,6.454577637,7.247494347
3.865527833,2.487976227,3.145858154,7.564070435,8.561635987
3.875589833,2.805765381,4.219725037,9.435478821,10.71011948
3.885652833,3.548670502,5.448669434,12.0979921,13.73471782
3.895714833,3.711831207,6.670578461,15.02784943,16.85557968
3.905777833,3.139421539,7.929759979,16.99969894,19.01911736
3.915839833,2.091301117,9.548044739,18.24630661,20.69943003
3.925902833,1.238973541,11.20045853,19.87866211,22.8505259
3.935964833,1.614841919,12.41323654,22.30451752,25.57709244
3.946027542,2.993624725,12.91229874,25.12525177,28.40717382
3.956089542,4.3516008,13.2154184,27.54616745,30.86057443
3.966152542,5.024002533,13.61987732,28.96506683,32.39933265
3.976214542,5.569917297,13.94694717,29.29138824,32.91696735
3.986277542,6.340365143,13.93542114,28.48172195,32.33581108
3.996339542,6.671626282,13.74531647,26.63606003,30.70706785
4.006402542,6.366261292,13.63424744,23.99629944,28.32391874
4.016464542,5.483846283,13.21511902,21.38602753,25.73080088
4.026527542,4.544549561,12.0276384,19.36418198,23.24410806
4.036589542,3.971391449,10.54317535,17.55010437,20.8551351
4.046652542,3.478316803,9.068591766,15.60639633,18.38199257
4.056714542,2.988834686,7.559579773,13.67017273,15.90452771
4.066777542,2.616708527,6.084098053,11.84801193,13.57345937
4.076839542,2.389930115,4.608167267,9.82407074,11.11122574
4.086902542,1.93068512,3.313958588,7.602839813,8.515458871
4.096964542,1.214424591,2.356998596,5.227429504,5.861423777
4.107027542,0.303119659,1.720821533,2.946472778,3.425610911
4.117089542,-0.415835266,1.135838013,1.141825562,1.663373852
4.127152542,-0.474513245,0.759520569,-0.00119751,0.895564486
4.137214542,-0.100441132,0.830922089,-0.459544373,0.954830335
4.147277542,0.024698639,0.913101196,-0.443228302,1.01529067
4.157339542,-0.134420471,0.812210999,-0.245339813,0.859038528
4.167402542,-0.245190125,0.635278931,0.012573853,0.681069467
4.177464542,-0.26090744,0.305963745,-0.015867004,0.402415541
4.187527542,-0.539178772,0.039068756,-0.447120209,0.701538735
4.197589542,-0.991538086,-0.106578369,-1.003662872,1.414866031
4.207652542,-1.205742645,-0.182470551,-1.384470978,1.844958188
4.217714542,-1.144819336,-0.052540741,-1.581611023,1.953168008
4.227777542,-0.801433411,0.232466583,-1.548380127,1.758925024
4.237839542,-0.228874054,0.406554565,-1.14077774,1.232494949
4.247902542,0.219743042,0.431103516,-0.441731415,0.655182332
4.257964542,0.284558258,0.337997131,0.393831024,0.591876962
4.268027542,0.302371216,0.292641449,1.243015137,1.312308653
4.278089542,0.341739349,0.23875351,1.925446014,1.970058724
4.288151542,0.123642883,0.056582336,2.281106415,2.285155487
4.298214542,-0.264949036,-0.153730316,2.496209106,2.514933579
4.308276542,-0.268840942,-0.074544983,2.778072968,2.792046171
4.318339542,0.211510162,0.236957245,3.13702652,3.153065282
4.328401542,0.564925232,0.341889038,3.14630722,3.214852681
4.338464542,0.695902863,0.371677094,2.911744995,3.016733925
4.348526542,0.558638306,0.471669159,2.749931488,2.845465119
4.358589542,0.465831299,0.516575775,2.395468597,2.494417594
4.368651542,0.60144928,0.588426361,2.043849792,2.210273466
4.378714542,1.046473846,0.857267303,1.91197403,2.342148465
4.388776542,1.892664185,1.296603699,2.118095398,3.122448876
4.398839542,2.892285461,1.866768036,2.850971375,4.469695277
4.408901542,3.840114441,2.605631561,3.958967285,6.099935796
4.418964542,4.643643494,3.526217194,5.76032135,8.196275657
4.429026542,4.749174042,4.52119812,8.101452942,10.42254414
4.439089542,3.760330353,5.741460571,10.48479675,12.53137729
4.449151542,2.994672546,7.585326233,12.30546066,14.76243882
4.459214542,2.959495697,9.794881439,13.68005219,17.08338798
4.469276542,2.83749939,11.68994064,15.13248184,19.33127315
4.479339542,3.026855621,13.23412949,16.95673828,21.72176354
4.489401542,3.908971252,13.96161667,19.49860245,24.29819528
4.499464542,4.798870697,13.66538269,22.18940689,26.49795506
4.509526542,5.716911621,13.30283661,24.79533783,28.7133648
4.519589542,6.605613556,13.2591275,27.53808426,31.26954872
4.529651542,7.113507385,12.61890884,29.04829376,32.45985549
4.539714542,6.966063995,11.73379944,29.24273941,32.26989162
4.549776542,5.982758789,11.28667923,29.05473038,31.73893332
4.559839542,4.808600464,11.13384705,28.4121167,30.89228971
4.569901542,4.09174118,10.98490677,27.03093887,29.46323436
4.579964542,3.81092514,10.64137115,24.89488083,27.34075752
4.590026542,3.618724823,10.00594254,22.06995529,24.5009588
4.600089542,3.272345123,9.222771149,19.02304138,21.39261213
4.610151542,2.824925537,8.203690338,16.34211639,18.50258111
4.620214542,2.308349762,6.965165863,14.10367126,15.89828787
4.630276542,1.679806824,5.634283447,11.85399948,13.23193881
4.640339542,1.020128632,4.457879791,9.371561737,10.42782451
4.650401542,0.599653015,3.602408752,6.924749908,7.828735137
4.660464542,0.81206131,3.069516907,4.505780182,5.512116895
4.670526542,1.619631958,2.798580322,2.021396484,3.813306078
4.680589542,2.330503693,2.576142883,-0.327518921,3.489273314
4.690651542,2.13186676,1.987117767,-2.328557739,3.730371838
4.700714542,1.220711517,1.125359802,-3.85074234,4.193421975
4.710776542,-0.047451324,0.339494019,-4.7364505,4.748838928
4.720839542,-1.223106537,-0.216000824,-4.752467194,4.912086154
4.730901542,-1.810185699,-0.418080597,-3.708687744,4.148002945
4.740964542,-1.624571686,-0.378413086,-1.942809906,2.560652252
4.751026542,-0.990639954,-0.36973114,-0.178279266,1.072311583
4.761088542,-0.340841217,-0.376018066,0.863703918,1.00177182
4.771151542,0.083226929,-0.375868378,1.047072601,1.115600642
4.781213542,0.291144562,-0.102387085,0.772693176,0.832047484
4.791276542,0.394878845,0.261057129,0.409398651,0.625849329
4.801338542,0.805175629,0.495769043,0.117655334,0.952857552
4.811401542,1.687141571,0.82837738,0.164657593,1.886734716
4.821463542,2.462229767,1.12790451,0.618663483,2.778036809
4.831526542,2.620450745,1.151555328,1.123563538,3.074936878
4.841588542,2.114203491,0.979562988,1.483265533,2.762150737
4.851651542,1.185983734,0.695304108,1.527423706,2.055000827
4.861713542,0.070952454,0.461340637,1.387913818,1.464299901
4.871776542,-0.634829865,0.428558807,1.364263,1.564571872
4.881838542,-0.520617371,0.518222351,1.508113861,1.67749941
4.891901542,-0.059127045,0.725092163,1.74581955,1.891333009
4.901963542,0.406255188,0.890947266,1.947899323,2.180170195
4.912026542,0.685274963,1.133592682,2.038760376,2.431291429
4.922088542,0.796493683,1.349593506,2.087259521,2.610068414
4.932151542,0.748742981,1.374591522,2.114053802,2.630464101
4.942214042,0.869691467,1.355581055,2.247576141,2.765060895
4.952277042,1.296154633,1.644480286,2.798430634,3.49507457
4.962339042,1.88622757,2.126328278,3.863465881,4.796404383
4.972402042,2.722239075,2.783461761,5.009632416,6.344656169
4.982464042,3.597618713,3.563789063,6.288123779,8.073658003
4.992527042,4.167184296,4.582121429,7.786807251,9.949654713
5.002589042,3.911965027,5.863756256,9.26707901,11.64327536
5.012652042,3.188968506,7.684420166,10.89943451,13.71194757
5.022714042,2.907254333,9.569150848,13.23996735,16.59269451
5.032777042,3.658392334,10.73193283,16.47698593,20.00123202
5.042839042,5.667065277,10.90033264,20.12250504,23.5764308
5.052902042,7.946974182,10.93281509,22.92392944,26.61179035
5.062964042,9.911938019,11.56225616,24.45988541,28.81350859
5.073026042,12.00249069,12.33779343,25.53944046,30.79844068
5.083089042,14.27895676,12.51248016,27.18332199,33.15695644
5.093151042,15.75638443,11.82675613,28.79891235,34.89288128
5.103214042,15.1767897,10.59092606,29.09828979,34.48496962
5.113276042,12.77518387,9.390871582,27.91110855,32.10021452
5.123339042,9.819580078,8.840915222,25.65724548,28.85966356
5.133401042,7.649842072,8.96874939,22.5462648,25.44194579
5.143464042,6.600224762,8.949289856,19.21359512,22.19943678
5.153526042,6.27405304,8.310568085,16.19257736,19.25172317
5.163589042,5.956563263,7.48742981,13.70969055,16.71818968
5.173651042,5.214556274,6.819518738,11.44325363,14.30543556
5.183714042,4.165388031,5.965694275,8.939709778,11.5264208
5.193776042,3.10888504,5.001698914,6.584357758,8.833794502
5.203839042,1.801503754,4.192481689,4.972958679,6.749269332
5.213901042,0.518970795,3.43775116,4.120331726,5.391159175
5.223964042,0.233215027,2.714006195,3.311264191,4.287737097
5.234026042,0.376317444,2.035317535,2.165696411,2.995725828
5.244089042,0.461640015,1.595681763,0.873583374,1.876821702
5.254151042,0.661624146,1.382824402,0.018411713,1.533065174
5.264214042,0.924627228,1.362466736,-0.023950195,1.646761892
5.274276042,0.814606018,1.583706665,0.81909668,1.960262517
5.284339042,0.344433746,1.81482605,1.797761536,2.577629674
5.294401042,-0.067060547,1.839824066,2.407144318,3.030477434
5.304464042,-0.251027985,1.597927094,2.590962067,3.054418189
5.314526042,-0.167950745,1.403780823,2.319426727,2.716348357
5.324589042,0.410895538,1.341510315,1.726659393,2.224823078
5.334651042,1.838476868,1.45437561,1.046773224,2.567282569
5.344714042,3.260220337,1.692530365,0.576750641,3.718378273
5.354776042,4.058360596,1.825004883,0.357905731,4.464194223
5.364838042,4.291575623,1.773362274,0.452658691,4.66554766
5.374901042,3.950285339,1.579814758,0.818348236,4.33246613
5.384963042,3.054548035,1.298250275,1.61349472,3.690404136
5.395026042,2.123035126,0.951421509,2.592608643,3.483403595
5.405088042,1.374591522,0.629291382,3.411405945,3.731380444
5.415151042,0.743204498,0.438587952,3.930526428,4.024145912
5.425213042,0.287102966,0.40251297,4.012855225,4.043198221
5.435276042,0.152532806,0.423768768,3.591331787,3.619462699
5.445338042,0.257165222,0.437839508,2.933000793,2.97663082
5.455401042,0.530197449,0.577948151,2.294279022,2.424633917
5.465463042,0.800984344,0.658181305,1.836530914,2.108939153
5.475526042,0.865649872,0.631686401,1.641187134,1.960069544
5.485588042,1.022823029,0.752784576,1.666783905,2.095476116
5.495651042,1.369352417,1.020128632,1.998793488,2.628871216
5.505713042,1.937421112,1.364861755,2.655926971,3.559550007
5.515776042,2.675685883,1.878743134,3.330723724,4.667193079
5.525838042,3.523373108,2.618205414,4.095782776,6.003715033
5.535901042,4.136348419,3.474724274,5.373525696,7.61957121
5.545963042,4.369264069,4.406835938,7.258855133,9.549955462
5.556026042,4.196074219,5.53563858,9.535770264,11.79751024
5.566088042,3.873644714,6.699019318,12.22343124,14.46700572
5.576150042,4.378694458,7.776478729,14.77622269,17.26219405
5.586213042,5.928721161,8.733438721,16.68116135,19.7404111
5.596275042,7.922275543,9.486522675,18.21876389,22.0154473
5.606338042,9.985584869,10.06911118,20.06816803,24.57295817
5.616400042,12.06266556,10.30786469,21.99975128,27.12469412
5.626463042,13.91536285,10.23631348,23.73075165,29.35247878
5.636525042,14.85346207,9.859996033,25.4075647,31.03851158
5.646588042,14.89103394,9.3654245,26.84188202,32.09268917
5.656650042,14.27760956,8.725954285,27.17449036,31.9130904
5.666713042,13.09476929,8.048912201,25.89689713,30.11490081
5.676775042,11.5206427,7.438481598,23.28497864,27.02307249
5.686838042,9.851014709,7.056625671,20.3658989,23.69827619
5.696900042,8.572673035,6.856791229,17.42975464,20.5986081
5.706963042,7.392976227,6.479725342,14.36787186,17.40915505
5.717025042,6.011199646,5.916147308,11.50612289,14.26626034
5.727088042,4.631967773,5.457650757,8.959768066,11.46815247
5.737150042,3.56408844,4.967270508,6.597230988,8.994440472
5.747213042,3.024310913,4.375401306,4.579876099,7.018964181
5.757275042,2.850222931,3.955075378,3.243006134,5.855209714
5.767338042,2.934048615,3.785927124,2.579136658,5.440021265
5.777400042,2.778222656,3.480711823,2.446213074,5.081125301
5.787462042,2.230661316,2.966231689,2.653232574,4.562238862
5.797525042,1.528471527,2.378703461,2.879861298,4.035846436
5.807587042,0.861009521,1.811981964,3.010240173,3.617480053
5.817650042,0.380059662,1.350042572,2.98958313,3.302221613
5.827712042,0.047451324,1.203946381,2.823877716,3.070183035
5.837775042,-0.259260864,1.374591522,2.414628754,2.790546553
5.847837042,-0.433199158,1.449435883,1.732048187,2.299677545
5.857900042,-0.437989197,1.340312805,0.707578583,1.577637602
5.867962042,-0.333805847,1.263073425,-0.297132111,1.339801594
5.878025042,-0.270637207,1.187031555,-0.857566681,1.489197443
5.888087042,-0.167202301,1.059646454,-0.897683258,1.39880036
5.898150042,-0.075892181,0.838256836,-0.537831573,0.99884781
5.908212042,-0.117655334,0.626297607,0.010777588,0.637344198
5.918275042,-0.307310944,0.529898071,0.593515778,0.852931979
5.928337042,-0.574056244,0.535286865,1.176703033,1.414461957
5.938400042,-0.764759674,0.643811188,1.830543365,2.085722709
5.948462042,-0.548908539,0.797092438,2.360142059,2.550867985
5.958525042,0.138911133,0.878672791,2.452050934,2.608431705
5.968587042,0.919388123,1.019679565,2.396217041,2.761680112
5.978649042,1.374142456,1.158590698,2.509232025,3.086558804
5.988712042,1.718276825,1.264420624,2.870730286,3.576636288
5.998774042,2.095492401,1.296304321,3.368894348,4.173840249
6.008837042,2.600542145,1.249002686,3.886817322,4.840472709
6.018899042,3.16741333,1.223705292,4.45802948,5.603926185
6.028962042,3.581003265,1.304237823,5.009931793,6.294762685
6.039024042,4.065096588,1.640139313,5.547314301,7.070202485
6.049087042,4.881199493,2.302811279,6.078110504,8.128497745
6.059149042,5.780529327,3.259322205,7.037764893,9.673046843
6.069212042,6.041586456,4.459825745,8.7615802,11.53932841
6.079274042,5.647905121,5.424719238,10.94104797,13.45484826
6.089337042,5.405409393,5.960155792,13.26810883,15.51723621
6.099399042,5.50525177,6.498137054,15.33650757,17.54257811
6.109462042,6.11014389,7.416926422,16.85225555,19.39956631
6.119524042,6.831493835,8.238418121,17.49591705,20.50970392
6.129587042,7.487130432,8.832832031,17.75981827,21.20111291
6.139649042,8.181985474,9.494905243,18.15649338,22.06255569
6.149712042,8.898246002,10.13617172,18.96496216,23.27209807
6.159774042,9.665251007,10.39648041,19.95769775,24.49109188
6.169836042,10.03992188,10.15114059,20.74416229,25.18265188
6.179899042,9.614356842,9.745783539,20.64476898,24.77140772
6.189961042,8.736282806,9.644593964,19.71969269,23.62640704
6.200024042,8.322094116,9.786798248,18.56948456,22.58017775
6.210086042,8.891360321,9.810299377,17.86370224,22.23533494
6.220149042,9.729766846,9.397906952,17.69679932,22.27477775
6.230211042,9.930349731,8.451724548,16.96646805,21.39870397
6.240274042,9.034612427,7.355703735,15.44398407,19.34547087
6.250336042,7.385192413,6.461463318,13.51075424,16.69826504
6.260399042,5.888305206,5.744454346,11.36721176,14.03155006
6.270461042,4.697082367,5.085973663,9.270521851,11.57031919
6.280524042,4.121978302,4.51655777,7.344477081,9.556743316
6.290586042,3.883973236,4.039649506,5.764512634,8.039503849
6.300649042,3.695814514,3.586092682,4.631967773,6.92634327
6.310711042,3.490591278,3.117267609,3.907025299,6.096427766
6.320774042,3.034938812,2.693648529,3.484603729,5.348743698
6.330836042,2.450554047,2.296224976,3.200943604,4.639386191
6.340898042,1.861678619,2.008523254,2.953957214,4.02813557
6.350961042,1.307680664,1.800455933,2.690505066,3.491487905
6.361023042,0.895737305,1.673519897,2.38813385,3.050606079
6.371086042,0.638272705,1.561103668,2.04534668,2.651014853
6.381148042,0.555943909,1.507365417,1.682351532,2.32626972
6.391211042,0.757873993,1.531165924,1.135388947,2.051328871
6.401273042,0.899479523,1.489253082,0.465232544,1.800938498
6.411336042,0.870739288,1.352287903,-0.125439148,1.613258956
6.421398042,0.708476715,1.247056732,-0.523162079,1.52669195
6.431461042,0.384550323,1.141077118,-0.764909363,1.426542069
6.441523042,0.034129028,1.043330383,-0.944086761,1.407481045
6.451586042,-0.31943573,0.876726837,-0.930914154,1.318063085
6.461648042,-0.661175079,0.659229126,-0.702339478,1.168339107
6.471711042,-0.739162903,0.535286865,-0.356408844,0.979755627
6.481773042,-0.300425262,0.63423111,-0.047151947,0.703368854
6.491835042,0.379909973,0.854423218,0.333955536,0.992923422
6.501898042,0.903970184,0.934207306,0.927022247,1.596645118
6.511960042,1.287023621,0.938248901,1.494043121,2.183782418
6.522023042,1.503323822,0.893791351,2.089953918,2.725206942
6.532085042,1.69312912,0.806822205,2.824476471,3.390474247
6.542148042,1.80195282,0.761017456,3.541186066,4.0455136
6.552210042,2.027833099,0.767304382,4.114493866,4.650798089
6.562273042,2.677033081,0.842148743,4.670288086,5.448606375
6.572335042,3.323987732,0.977467346,5.063370667,6.135312491
6.582398042,3.986060944,1.300046539,5.495971069,6.912633423
6.592460042,4.373155975,1.976190491,6.302942963,7.92192603
6.602523042,4.028871918,2.944526825,7.442523193,8.960647222
6.612585042,3.25513092,4.143832855,8.680598602,10.15480281
6.622648042,2.577939148,5.359754333,10.31549881,11.9072353
6.632710042,2.667153625,6.354884949,12.6407634,14.39747097
6.642772042,3.410507813,7.24164093,14.48253342,16.54740768
6.652835042,3.980223083,8.351582794,15.59876221,18.13594479
6.662897042,4.367318115,9.681118011,16.58116928,19.69092908
6.672960042,4.830455017,10.52745804,17.46523087,20.95697873
6.683022042,5.54267395,10.61352905,18.44359634,21.98941745
6.693085042,6.644981689,10.18242554,20.17085449,23.55208998
6.703147042,7.806416473,9.440717926,22.87243652,25.94639947
6.713210042,8.572972412,8.82594635,25.12435364,27.97545944
6.723272042,8.510851593,8.554111633,26.12966309,28.78136052
6.733335042,8.008795624,8.605903931,25.96740051,28.50453085
6.743397042,7.512128448,8.648864594,24.95161285,27.45574469
6.753460042,7.259004822,8.551117859,23.23618011,25.8018378
6.763522042,7.046895905,8.362210693,20.74790451,23.45337611
6.773585042,6.657256165,8.016729126,17.72763519,20.56346408
6.783647042,5.962999878,7.45345047,14.65617233,17.49041677
6.793709042,5.083279266,6.774462433,11.79906372,14.52415141
6.803772042,4.30235321,5.993536377,9.130712585,11.73893665
6.813834042,3.885470123,5.214705963,7.029681702,9.576349053
6.823897042,3.863316193,4.439767456,5.82229248,8.278637376
6.833959042,4.255500641,3.913461914,5.30631546,7.847385145
6.844022042,4.601131897,3.561843109,4.983736267,7.661251089
6.854084042,4.337679749,3.123704224,4.642296295,7.079824049
6.864147042,3.820505219,2.615660706,4.175267487,6.234645109
6.874209042,3.082390137,2.042652283,3.710933075,5.238757638
6.884272042,2.205064545,1.609902191,3.478167114,4.421735088
6.894334042,1.346450043,1.395098877,3.32189209,3.846322354
6.904397042,0.696052551,1.43102417,3.082988892,3.469458147
6.914459042,0.368833008,1.590442657,2.60578125,3.075002692
6.924521042,0.354163513,1.731000366,1.85105072,2.55894174
6.934584042,0.529748383,1.822909241,0.951571198,2.12346867
6.944645833,0.660726013,1.886377258,0.070802765,1.999997764
6.954708833,0.849184113,1.905537415,-0.729283447,2.209986616
6.964770833,0.956810303,1.877395935,-1.310375061,2.481367416
6.974833833,0.876128082,1.63924118,-1.538500671,2.412819177
6.984895833,0.727936249,1.298399963,-1.407822418,2.04882835
6.994958833,0.48094986,0.988544312,-1.132544861,1.578350558
7.005020833,0.21300705,0.829874268,-0.693058777,1.101995359
7.015083833,0.045205994,0.787961426,-0.117355957,0.79793434
7.025145833,-0.015717316,0.775237885,0.561781769,0.957517398
7.035208833,0.125588837,0.738564148,1.164578247,1.384735372
7.045270833,0.364641724,0.707129517,1.633253632,1.816731451
7.055332833,0.81206131,0.763412476,1.877695313,2.183570898
7.065395833,1.259630585,0.961300964,1.977388,2.53393608
7.075457833,1.420396271,1.05186264,2.203867035,2.825061148
7.085520833,1.43925705,0.861458588,2.649490356,3.135820611
7.095582833,1.370998993,0.526604919,3.264411621,3.579571792
7.105645833,1.294208679,0.253123627,3.708538055,3.936026192
7.115707833,1.390757904,0.17438736,4.105362854,4.338043645
7.125770833,1.579365692,0.395627289,4.645140381,4.922219631
7.135832833,1.884730682,1.155596924,5.291047211,5.73435215
7.145895833,1.813927917,2.390828247,6.472390594,7.13429984
7.155957833,1.376387787,3.938310242,8.019124146,9.039418287
7.166020833,0.5043013,5.667514343,9.530980225,11.10020823
7.176082833,-0.664468231,7.170838165,11.42933258,13.508963
7.186144833,-0.721649323,8.256680145,13.85084702,16.14123625
7.196207833,0.760119324,8.801696777,16.42624146,18.65124811
7.206269833,3.111429749,8.961264954,18.92260025,21.16719313
7.216332833,5.372028809,9.043294373,20.95956436,23.45086789
7.226394833,7.538024597,9.217532043,22.04944794,25.05918726
7.236457833,9.245224457,9.414223022,22.76585815,26.3132299
7.246519833,10.54751633,9.56900116,23.97923492,27.88941719
7.256582833,11.1676767,9.38054306,25.62341583,29.48340262
7.266644833,11.11992599,8.865613861,26.4306871,30.01388152
7.276707833,10.44827271,8.318501587,25.35008423,28.65293426
7.286769833,9.019493866,7.942184143,22.48204834,25.49258826
7.296832833,7.118596802,7.604785767,18.89595566,21.57693971
7.306894833,5.357658691,7.060816956,15.54667053,17.89577066
7.316956833,4.203558655,6.366560669,12.55274643,14.68926285
7.327019833,3.738625488,5.645959167,9.982591095,12.06259924
7.337081833,3.889811096,5.112318878,8.11806839,10.35226879
7.347144833,4.590503998,4.812192993,7.130122833,9.750311789
7.357206833,5.173391876,4.491859131,6.67297348,9.563961367
7.367269833,5.174739075,4.077969818,6.341562653,9.144571024
7.377331833,4.516707458,3.506907349,6.120173035,8.375891797
7.387394833,3.672762451,3.006947021,5.952821045,7.613605769
7.397456833,2.828368378,2.675386505,5.645061035,6.857410205
7.407519833,1.940863953,2.395917664,5.066065063,5.930631464
7.417581833,1.155147858,2.079625397,4.451443176,5.047232382
7.427643833,0.666713562,1.812580719,4.156855774,4.583601833
7.437706833,0.452359314,1.677112427,4.28603714,4.62465668
7.447768833,0.513881378,1.663490753,4.450245667,4.778698782
7.457831833,0.738264771,1.74342453,4.240082703,4.643583238
7.467893833,1.013093262,1.801204376,3.479664001,4.04706767
7.477956833,1.311273193,1.836530914,2.295027466,3.218607503
7.488018833,1.476230164,1.810036011,1.033750305,2.554236784
7.498081833,1.51993927,1.650467834,-0.060474243,2.244530372
7.508143833,1.513802032,1.459914093,-0.754281464,2.234252958
7.518206833,1.422940979,1.293909302,-0.916993103,2.130689715
7.528268833,1.222956848,1.159039764,-0.628542938,1.798350036
7.538330833,0.971629486,1.046922913,-0.136665802,1.43484807
7.548393833,0.756676483,0.887055359,0.274678802,1.197862661
7.558455833,0.505199432,0.731229401,0.486638031,1.013281538
7.568518833,0.32766861,0.642913055,0.740210724,1.033738763
7.578580833,0.327369232,0.50669632,1.030307465,1.193920117
7.588643833,0.58737854,0.426612854,1.303938446,1.492403279
7.598705833,1.144969025,0.569565582,1.702858887,2.129574466
7.608768833,1.593735809,0.746647339,2.245480499,2.853008719
7.618830833,2.063908081,0.81206131,2.849624176,3.611027289
7.628893833,2.511177979,0.833017731,3.636986847,4.497511168
7.638955833,2.891387329,0.931961975,4.730013885,5.621539395
7.649018833,3.042123871,1.243164825,6.073619843,6.905710276
7.659080833,3.133583679,1.822909241,7.890242157,8.683217495
7.669142833,3.068469086,2.757116547,10.15742752,10.96314408
7.679205833,2.592458954,4.010759583,12.16999237,13.07347506
7.689267833,2.035317535,5.460644531,13.72795258,14.91367956
7.699330833,2.774630127,6.771169281,15.34593796,17.00132694
7.709392833,4.775968323,7.250472565,17.54755966,19.57794872
7.719455833,7.005881195,7.028933258,20.28012726,22.57812737
7.729517833,8.571774902,6.704258423,23.01808365,25.46084407
7.739580833,9.336384888,6.729256439,24.56421844,27.12658848
7.749642833,9.078022156,6.90933197,24.93664398,27.42235525
7.759705833,8.45157486,7.127428436,24.56930786,26.94216477
7.769767833,8.15429306,7.162605286,23.77401169,26.13425035
7.779829833,8.033643951,6.959028625,22.62260605,24.99499588
7.789892833,8.126450958,6.825655975,21.60098053,24.06722137
7.799954833,8.315208435,6.822063446,21.25684616,23.82302982
7.810017833,8.439899139,6.63794632,21.03620499,23.61813179
7.820079833,8.330626373,6.19441864,20.22085052,22.73000119
7.830142833,7.855364685,5.684878235,18.80434616,21.15722168
7.840204833,7.043003998,5.242697754,16.70241714,18.86956607
7.850267833,6.07511673,4.80665451,14.06580002,16.05794822
7.860329833,5.236710205,4.452041931,11.42843445,13.33615106
7.870392833,4.358486481,4.163292389,8.962462463,10.80070096
7.880454833,3.589385834,3.825295258,6.839876404,8.619772833
7.890516833,2.945424957,3.47861618,5.013075256,6.775486863
7.900579833,2.294877777,3.126248932,3.443888397,5.186546412
7.910641833,1.722168732,2.660118256,2.399061127,3.97461804
7.920704833,1.244212646,2.161355438,1.878144379,3.122010369
7.930766833,0.9395961,1.790576477,1.751956787,2.675510705
7.940829833,0.711021423,1.650617523,1.799408112,2.543218281
7.950891792,0.509390717,1.586251373,1.82530426,2.47131705
7.960954792,0.367934875,1.579365692,1.688638458,2.341211632
7.971016792,0.31823822,1.55391861,1.272503815,2.033520241
7.981078792,0.421673126,1.574126587,0.594563599,1.734701303
7.991141792,0.614621887,1.608704681,-0.182021484,1.731710899
8.001203792,0.741408234,1.543590088,-0.939147034,1.95303704
8.011266792,0.815204773,1.446741486,-1.535806274,2.261928527
8.021328792,0.88570816,1.322050781,-1.776056671,2.384674928
8.031391792,0.887953491,1.121168518,-1.598675537,2.145050983
8.041453792,0.741408234,0.842298431,-1.055904236,1.540807117
8.051516792,0.511935425,0.538130951,-0.409997406,0.848387101
8.061578792,0.156724091,0.271086273,0.114960938,0.333565923
8.071641792,-0.20477417,0.085172882,0.562230835,0.604392581
8.081703792,-0.399818573,0.047900391,1.031355286,1.107177973
8.091765792,-0.330961761,0.135019226,1.454525299,1.497801631
8.101828792,0.097896423,0.301024017,1.838925934,1.865970996
8.111890792,0.718356171,0.523311768,2.219135284,2.390492042
8.121953792,1.291364594,0.683628387,2.454745331,2.856701756
8.132015792,1.836081848,0.816402283,2.610271912,3.294120322
8.142078792,2.262545013,0.907712402,2.889141998,3.780237192
8.152140792,2.658771057,1.001417542,3.333717499,4.380133901
8.162203792,2.938838654,0.982107697,4.12452301,5.158778753
8.172265792,3.212319946,1.051712952,5.503455505,6.458569661
8.182327792,3.457510071,1.575473785,7.029382324,7.990538743
8.192390792,3.561543732,2.595752106,8.33212326,9.425858092
8.202452792,3.145409088,3.8273909,9.637558594,10.83628419
8.212515792,2.781665497,5.20332962,11.56375305,12.98201397
8.222577792,3.233126678,6.442602539,14.12881897,15.86139215
8.232640792,4.683610382,7.072642365,16.9856282,18.98604861
8.242702792,6.236780548,7.079528046,19.18081329,21.37570461
8.252765792,7.161407776,7.048991547,20.73158844,23.03850695
8.262827792,7.654332733,7.300618286,21.6159494,24.06526762
8.272890792,7.922574921,7.560477905,21.89886108,24.48444682
8.282952792,8.43046875,7.728129272,22.26799347,25.03318435
8.293014792,9.527238007,7.789801025,23.30398911,26.35384549
8.303077792,10.86560486,7.621401215,24.90940063,28.22455253
8.313139792,11.87061493,7.258256378,26.40389282,29.84559164
8.323202792,12.13930618,6.742728424,26.70042618,30.09551294
8.333264792,11.50956573,6.165379028,25.14965103,28.33702435
8.343327792,10.03064117,5.863157501,22.20033417,25.05683969
8.353389792,8.302035828,5.814059601,18.76857056,21.33040854
8.363452792,6.823859711,5.598657532,15.4674852,17.8087935
8.373514792,5.831124115,5.136119385,12.57430161,14.78156932
8.383576792,5.112917633,4.666994934,10.13422577,12.27294995
8.393639792,4.381388855,4.292024689,8.098758545,10.15913058
8.403701792,3.662733307,3.935765533,6.322701874,8.299543638
8.413764792,3.190016327,3.498674469,5.011278992,6.894189172
8.423826792,2.802921295,2.961741028,4.168531494,5.83137484
8.433889792,2.374512177,2.337239685,3.714824982,4.990082371
8.443951792,1.827549591,1.925595703,3.440146179,4.3453955
8.454014792,1.212328949,1.799108734,3.172203369,3.843098741
8.464076792,0.545615387,1.798060913,2.832709351,3.399258958
8.474138792,0.063617706,1.883533173,2.341281281,3.005551939
8.484201792,0.057031403,2.012864227,1.882485352,2.756560552
8.494263792,0.33694931,1.986369324,1.50122818,2.512545318
8.504326792,0.65997757,1.69193161,1.092727661,2.119494446
8.514388792,0.779728546,1.281934204,0.486039276,1.57720198
8.524451792,0.668210449,0.960552521,-0.367336121,1.226418434
8.534513792,0.479902039,0.765957184,-1.188229065,1.49294497
8.544576792,0.41658371,0.556842041,-1.814227295,1.942945116
8.554638792,0.459993439,0.358953552,-2.165696411,2.242918314
8.564700792,0.423768768,0.158220978,-2.014959869,2.06510947
8.574763792,0.355061646,-0.020507355,-1.44853775,1.491559901
8.584825792,0.241447906,-0.137414246,-0.771944733,0.820413577
8.594888792,0.191152496,-0.206720123,-0.208516388,0.350359202
8.604950792,0.302820282,-0.222437439,0.16495697,0.410352701
8.615013792,0.423319702,-0.207169189,0.377365265,0.603757556
8.625075792,0.560883636,-0.152832184,0.786015472,0.97763411
8.635138792,0.763262787,-0.017663269,1.506616974,1.689016512
8.645200792,1.051413574,0.211360474,2.326312408,2.561615345
8.655262792,1.468296661,0.459095306,3.151546326,3.506979873
8.665325792,1.974843292,0.796194305,4.057462463,4.58224105
8.675387792,2.519859924,1.200054474,4.796775055,5.549673477
8.685450792,2.985541534,1.625918884,5.456902313,6.429218718
8.695512792,3.225642242,2.051932983,6.302643585,7.371466137
8.705575792,3.009791107,2.743494873,7.666158142,8.680759603
8.715637792,2.528691559,3.905079346,9.777816925,10.82818681
8.725700792,1.65211441,5.339396667,12.30291595,13.5129708
8.735762792,0.677640839,6.871610413,15.13757126,16.63803746
8.745824792,0.402962036,8.534352722,17.76909897,19.71645082
8.755887792,1.342707825,9.618398438,19.86623795,22.11297951
8.765949792,3.004851379,9.804012451,22.02669525,24.29656551
8.776012792,4.802612915,9.663155365,24.25106964,26.54347455
8.786074792,6.458020477,8.983269196,26.24013336,28.47717951
8.796137792,8.0595401,7.771239624,28.02427322,30.17794297
8.806199792,9.157806244,6.632108459,29.71186386,31.79064535
8.816262792,9.489815826,6.02946167,31.22267212,33.1853321
8.826324792,9.270671539,6.080355835,30.78962265,32.72486732
8.836386792,8.52058136,6.383924561,27.65184769,29.63071852
8.846449792,7.427853699,6.795418854,23.38706635,25.46184597
8.856511792,6.291716309,7.076384583,19.71190887,21.86824786
8.866574792,5.429359589,6.845714264,16.55691971,18.72093319
8.876636792,4.922064514,6.34066452,13.3812735,15.60414131
8.886699792,4.527185669,5.948180695,10.51308792,12.89966206
8.896761792,4.123475189,5.541027374,8.287815399,10.78860121
8.906824792,3.848646698,4.927153931,6.420747986,8.961859849
8.916886792,3.521277466,4.178111572,5.177732849,7.527611092
8.926948792,3.067271576,3.308869171,4.885390778,6.650098733
8.937011792,2.611170044,2.531236267,4.991220703,6.175568811
8.947073583,2.017953644,1.885179749,4.782704315,5.522707684
8.957136583,1.464255066,1.417552185,4.061204681,4.543883863
8.967198583,0.905018005,0.974024506,3.015030212,3.295176552
8.977261583,0.131726074,0.505349121,1.968556366,2.036650107
8.987323583,-0.460741882,0.154778137,1.077758789,1.182287343
8.997386583,-0.880469055,-0.110619965,0.384250946,0.967011542
9.007448583,-1.06713089,-0.251177673,-0.232167206,1.120607055
9.017510583,-0.965043182,-0.280666351,-0.838705902,1.309010899
9.027573583,-0.687220917,-0.175285492,-1.414558411,1.582394732
9.037635583,-0.255668335,-0.059875488,-1.89206543,1.910199718
9.047698583,0.18606308,0.139809265,-2.432292023,2.443401437
9.057760583,0.658031616,0.436641998,-2.915038147,3.020117422
9.067823583,1.25319397,0.608784027,-3.104394379,3.402701511
9.077885583,1.930236053,0.665516052,-2.784359894,3.452735561
9.087947583,2.372416534,0.644260254,-1.945354614,3.134937968
9.098010583,2.508483582,0.61432251,-0.795595551,2.702379378
9.108072583,2.297422485,0.505349121,0.268541565,2.367623784
9.118135583,1.85808609,0.2866539,1.112935638,2.184783768
9.128197583,1.382075958,0.013172607,1.811233521,2.278349038
9.138260583,0.90801178,-0.080233154,2.325713654,2.497972528
9.148322583,0.493224335,0.028440857,2.567011871,2.61412109
9.158385583,0.221688995,0.249830475,2.634072418,2.655164549
9.168447583,0.362546082,0.561033325,2.727777557,2.8083747
9.178509583,0.90920929,0.904568939,2.900218964,3.171147511
9.188572583,1.618135071,1.330283661,3.292852478,3.902677692
9.198634583,2.138303375,1.665736084,3.936663666,4.779575174
9.208697583,2.412233734,1.888622589,4.91547821,5.792037026
9.218759583,2.873873749,2.093396759,6.321204987,7.252523202
9.228822583,3.004552002,2.250569916,8.173902283,8.99472491
9.238884583,2.66775238,2.450703735,10.66367477,11.26218501
9.248947583,2.04534668,3.176544342,13.22170532,13.75090428
9.259009583,1.106349335,4.662953339,15.35716461,16.08756189
9.269071583,0.614621887,6.33482666,16.62038773,17.79733342
9.279134583,1.024619293,7.917635193,16.86557785,18.65975637
9.289196583,2.286195831,9.354347534,17.17887634,19.69376301
9.299259583,3.703149261,10.30157776,18.48086884,21.47971908
9.309321583,4.527634735,10.65214874,20.25842239,23.33176862
9.319384583,5.150040436,10.08946884,22.28520767,24.99901556
9.329446583,5.529201965,9.072184296,24.48533249,26.69097431
9.339508583,5.307213593,8.538693695,26.46810928,28.31318801
9.349571583,4.809947662,8.489895172,27.61038391,29.28390712
9.359633583,4.500241699,8.570128326,27.34289017,29.00573939
9.369696583,4.331841888,8.837921448,25.49737793,27.33111763
9.379758583,4.335584106,9.354946289,23.06763062,25.26713066
9.389821583,4.602479095,9.75386673,20.69386688,23.33574204
9.399883583,4.849315796,9.711055756,18.36875198,21.33615516
9.409946583,4.874014435,9.165590057,16.03001541,19.09778657
9.420008583,4.512665863,8.165819092,13.64891693,16.53292739
9.430070583,3.972289581,6.953340454,11.37245087,13.90901387
9.440133583,3.432512054,5.71002594,9.28698761,11.42955266
9.450195583,2.908751221,4.492607574,7.471263428,9.190437078
9.460258583,2.394420776,3.451522522,5.968238983,7.298365237
9.470320583,2.014061737,2.656226349,4.932243347,5.953067069
9.480383583,2.00672699,2.12483139,4.166735229,5.089552448
9.490445583,2.125130768,1.667532349,3.521726532,4.438400915
9.500507583,2.05238205,1.21098175,3.073708191,3.889271258
9.510570583,1.707349548,0.822838898,2.864593048,3.434821635
9.520632583,1.119372253,0.523910522,2.868035889,3.122996371
9.530695583,0.449515228,0.423319702,2.967129822,3.030696766
9.540757583,0.02335144,0.459095306,2.927013245,2.962890535
9.550820583,-0.156275024,0.591270447,2.51102829,2.584431407
9.560882583,-0.197289734,0.705183563,1.617386627,1.775428568
9.570944583,-0.051792297,0.831820221,0.594713287,1.023860936
9.581007583,0.125439148,0.935853882,-0.28785141,0.987125069
9.591069583,0.189056854,0.930914154,-1.079405365,1.437866335
9.601132583,0.284258881,0.987197113,-1.636846161,1.932518203
9.611194583,0.383203125,1.110690308,-1.894161072,2.228973701
9.621257583,0.446820831,1.167871399,-1.717827759,2.124736376
9.631319583,0.563578033,1.120869141,-1.188977509,1.728477754
9.641382583,0.525856476,1.044527893,-0.36149826,1.224028
9.651444583,0.364641724,0.914598083,0.706530762,1.211874151
9.661506583,0.163609772,0.641565857,1.669627991,1.796115958
9.671569583,-0.041912842,0.275876312,2.55668335,2.571865894
9.681631583,-0.171543274,0.001047821,3.373684387,3.378043004
9.691694583,-0.11346405,-0.093106384,4.120032349,4.122645927
9.701756583,0.220790863,-0.046702881,4.529580688,4.535199111
9.711819583,0.780327301,0.117206268,4.543052673,4.611070982
9.721881583,1.398691406,0.44577301,4.440366211,4.676740672
9.731943583,2.166145477,1.001716919,4.585863647,5.169697129
9.742006583,2.989433441,1.681752777,5.234614563,6.258290048
9.752068583,3.674858093,2.344275055,6.146967316,7.535609777
9.762131583,4.426744537,3.128643951,7.363188171,9.143359351
9.772193583,4.620890808,3.836222534,8.816366272,10.66759342
9.782256583,3.950135651,4.733307037,10.23751099,11.95049783
9.792318583,2.651885376,6.005960541,11.74936707,13.45926018
9.802380583,1.598525848,7.771988068,13.29654968,15.48409884
9.812443583,2.169438629,9.789792023,14.9738118,18.02114124
9.822505583,4.391118622,11.2923674,16.8290538,20.73684007
9.832568583,7.128027191,12.18600906,19.32496353,23.9324425
9.842630583,8.852740631,12.14080307,22.14360214,26.76021733
9.852693583,9.512269135,11.20375168,24.08910645,28.21865279
9.862755583,9.113348694,10.20592667,25.28257462,28.7475676
9.872817583,8.058791656,9.640402679,26.25465317,29.10649927
9.882880583,7.239694977,9.408235474,27.20727219,29.68440227
9.892942583,6.793622589,9.256151733,27.26355515,29.58261469
9.903005583,6.29276413,9.013656006,25.54108704,27.80633025
9.913067583,5.395529938,8.632548523,22.51737488,24.71163306
9.923130583,4.296215973,8.104895782,19.14144516,21.2259683
9.933192583,3.366050262,7.354057159,16.18254822,18.09108393
9.943254583,2.917283478,6.462062073,13.44279556,15.19794531
9.953317792,2.743494873,5.668262787,10.67639832,12.39521876
9.963379792,2.900817719,4.967120819,8.09815979,9.933137704
9.973442792,3.413351898,4.273612976,6.086942139,8.183251411
9.983504792,3.797004089,3.465293884,4.803660736,7.035670418
9.993567792,3.847449188,2.670297089,3.982318726,6.147537249
10.00362979,3.57456665,2.116149445,3.391197968,5.362447097
10.01369279,3.084485779,1.942211151,2.819686432,4.60834767
10.02375479,2.383643188,1.944157104,2.267335052,3.821296892
10.03381679,1.521735535,1.874851227,1.814227295,3.020292509
10.04387979,0.793499908,1.715582428,1.491049347,2.4075077
10.05394179,0.397573242,1.547332306,1.255588989,2.031946224
10.06400479,0.326770477,1.345252533,1.104104004,1.770742492
10.07406679,0.42122406,1.179098053,0.902922363,1.543687378
10.08412979,0.565224609,1.111738129,0.529598694,1.354959521
10.09419179,0.705782318,1.039288788,-0.192948761,1.271014984
10.10425379,0.751437378,0.989442444,-1.025367737,1.610910761
10.11431679,0.881217499,1.00276474,-1.650467834,2.122763641
10.12437879,1.188378754,1.2461586,-2.119292908,2.730669835
10.13444179,1.22160965,1.496438141,-2.305206299,3.007595938
10.14450379,0.99812439,1.453477478,-2.194586334,2.815147999
10.15456679,0.763562164,1.264420624,-1.585802307,2.167153813
10.16462879,0.600551147,1.00276474,-0.656834106,1.340757192
10.17469079,0.616717529,0.639769592,0.131726074,0.898330341
10.18475379,0.60264679,0.363743591,0.745599518,1.025383438
10.19481579,0.576600952,0.343086548,1.376088409,1.530946226
10.20487879,0.576002197,0.49382309,1.971849518,2.112777862
10.21494079,0.921184387,0.743952942,2.383343811,2.661273074
10.22500379,1.787433014,1.20050354,2.622845764,3.393441532
10.23506579,2.755170593,1.71887558,3.016227722,4.432056851
10.24512779,3.422931976,2.077230377,3.467539215,5.296713846
10.25519079,3.854185181,2.252815247,3.852987671,5.897069945
10.26525279,4.097429352,2.575095062,4.634213104,6.700445729
10.27531579,4.154909821,3.288511505,6.06927887,8.056905705
10.28537779,4.410578156,4.621339874,7.767796783,10.05726845
10.29544079,4.622687073,6.607110443,9.993817749,12.84132148
10.30550279,4.360731812,8.713979187,13.14431625,16.36222677
10.31556479,4.986280975,10.39573196,16.68699921,20.28275582
10.32562779,6.749165039,11.01738922,19.96817596,23.7836529
10.33568979,8.174650726,10.64167053,22.22697876,25.96360243
10.34575279,8.60126358,10.4589006,22.65089722,26.39002618
10.35581479,7.932304688,11.25958557,21.3147757,25.37753707
10.36587679,7.249275055,12.24214233,19.21973236,23.91276123
10.37593979,7.498656464,12.51158203,17.41254044,22.71488715
10.38600179,7.91449173,12.19798416,16.4853685,21.98175087
10.39606479,8.285570068,11.74667267,16.41830795,21.82191161
10.40612679,8.426127777,11.20659576,16.55197998,21.69229032
10.41618979,8.273594971,10.43659698,16.50318146,21.20683684
10.42625179,8.192014618,9.575138397,16.47698593,20.74327467
10.43631379,7.991880798,8.476423187,16.26996643,20.01079
10.44637679,7.392976227,7.26738739,15.61358139,18.74179663
10.45643879,6.35009491,6.102509766,14.42909454,16.90452898
10.46650179,5.246290283,4.935087433,12.92981232,14.80063162
10.47656379,4.341421967,3.810176697,11.43846359,12.81420464
10.48662679,3.7384758,2.844385071,10.11701157,11.15440051
10.49668879,3.437002716,2.134411469,9.039103088,9.903236069
10.50675079,3.375330963,1.666634216,8.021369476,8.860750363
10.51681379,3.305576019,1.320553894,7.019053802,7.870057922
10.52687579,3.114872589,1.073717194,6.165079651,6.990243698
10.53693879,2.953358459,0.90441925,5.388344879,6.210842206
10.54700079,2.575544128,0.773291931,4.695735168,5.41122322
10.55706379,1.923350372,0.692609711,3.997886353,4.490220502
10.56712579,1.250499573,0.826581116,3.130140839,3.470557188
10.57718779,0.706530762,1.174457703,2.120939484,2.525256602
10.58725079,0.295335846,1.492396545,1.200653229,1.93805028
10.59731279,0.206720123,1.689835968,0.430654449,1.756058673
10.60737579,0.345032501,1.819167023,-0.197289734,1.862079301
10.61743779,0.495170288,1.826052704,-0.800684967,2.054448468
10.62750079,0.463885345,1.782942352,-1.309177551,2.260092676
10.63756279,0.265547791,1.724264374,-1.632804565,2.389488232
10.64762479,0.148341522,1.695075073,-1.733096008,2.428766453
10.65768779,0.084574127,1.646126862,-1.516197052,2.239584767
10.66774979,0.074694672,1.530866547,-1.14077774,1.910629616
10.67781279,0.224233704,1.415157166,-0.692759399,1.591498081
10.68787479,0.470920715,1.459165649,-0.201630707,1.546475236
10.69793779,0.657432861,1.596130829,0.315394135,1.754800573
10.70799979,0.769699402,1.798959045,0.929117889,2.16609115
10.71806179,0.830023956,1.891766052,1.710493011,2.682071011
10.72812479,0.892294464,1.823358307,2.525697784,3.240366372
10.73818679,1.073118439,1.580862579,3.132535858,3.669262948
10.74824979,1.22385498,1.215322723,3.382516022,3.796873052
10.75831179,1.324146423,0.990490265,3.505709839,3.876136761
10.76837379,1.493294678,0.968935089,3.556454315,3.977075747
10.77843679,1.880838776,1.145867157,3.558100891,4.184572618
10.78849879,2.858605499,1.613794098,3.676654358,4.928868436
10.79856179,4.158801727,2.424358521,4.251758423,6.422662667
10.80862379,5.201533356,3.267106018,5.565276947,8.288681348
10.81868679,5.693560181,3.900738373,7.556885376,10.23420265
10.82874879,5.889203339,4.453089752,9.717043304,12.20383771
10.83881079,5.553750916,5.131778412,11.7993631,14.01443072
10.84887379,4.960085449,5.857319641,13.30493225,15.36007367
10.85893579,4.722828827,6.986271973,13.67436401,16.06553265
10.86899879,5.148094482,8.57087677,13.94874344,17.16188361
10.87906079,6.055806885,10.10144394,15.70683746,19.63203275
10.88912379,7.526199188,11.12770981,18.71782608,23.03967476
10.89918579,9.13954422,11.43981079,21.69887695,26.17712361
10.90924779,10.42402313,11.04538101,23.78793274,28.22280007
10.91931079,11.1875853,10.41444305,24.84623199,29.17118327
10.92937279,11.50926636,10.01207977,25.80004852,29.97244497
10.93943579,11.94351334,9.821526031,26.62917435,30.7932267
10.94949746,12.42191849,9.72452774,25.88492203,30.31335823
10.95956046,12.08945984,9.540111237,23.31192261,27.93947919
10.96962246,10.7403154,9.279203796,20.05200165,24.56706674
10.97968446,8.8013974,8.639583893,16.98517914,20.99055303
10.98974746,6.927743683,7.588469696,14.45933167,17.73839838
10.99980946,5.597759399,6.402336273,12.45529907,15.08175371
11.00987246,4.704716492,5.262905731,10.79330521,12.8968202
11.01993446,4.038751373,4.218377838,9.710007935,11.33095223
11.02999646,3.744014282,3.311114502,9.410480804,10.65543388
11.04005946,3.709436188,2.537223816,9.628277893,10.6254956
11.05012146,3.676205292,1.843266907,9.661059723,10.49991396
11.06018446,3.487298126,1.35842514,9.164542236,9.899262674
11.07024646,2.969075775,1.192420349,8.043074341,8.656114723
11.08030946,2.440375214,1.342707825,6.326144714,6.912192303
11.09037146,2.020348663,1.591939545,4.318968658,5.026884772
11.10043346,1.775308228,1.817520447,2.316133575,3.437960822
11.11049646,1.42518631,1.965113525,0.695154419,2.525087494
11.12055846,0.969384155,1.98098053,-0.450263672,2.250939109
11.13062146,0.602497101,1.93068512,-1.066831512,2.286630111
11.14068346,0.367186432,1.794618073,-1.264570313,2.225897117
11.15074646,0.330812073,1.541195068,-1.374441833,2.091365396
11.16080846,0.378263397,1.271605682,-1.605710907,2.082875831
11.17087046,0.271385651,1.022523651,-2.014510803,2.275402946
11.18093346,0.009580078,0.839154968,-2.489473114,2.627118045
11.19099546,-0.335901489,0.700094147,-2.817141724,2.922199363
11.20105846,-0.400567017,0.750090179,-2.898871765,3.021017498
11.21112046,-0.335602112,1.100062408,-2.633174286,2.873390489
11.22118246,-0.385448456,1.240171051,-1.917213135,2.315664257
11.23124546,-0.387993164,1.044527893,-0.939446411,1.45744186
11.24130746,-0.446820831,0.578247528,-0.013322296,0.730887503
11.25137046,-0.445174255,0.154029694,0.767005005,0.900112183
11.26143246,-0.258961487,-0.046253815,1.556313629,1.578389236
11.27149546,0.102836151,-0.037122803,2.23140976,2.23408659
11.28155746,0.772842865,0.181871796,2.63616806,2.753133757
11.29161946,1.697170715,0.602796478,2.850222931,3.371575713
11.30168246,2.884801025,1.232686615,3.179837494,4.466873597
11.31174446,4.087998962,1.959125977,3.804937592,5.918400137
11.32180746,4.859494629,2.565365295,4.696633301,7.228703308
11.33186946,4.923112335,2.904709625,5.747897186,8.106336727
11.34193146,4.52239563,3.085683289,6.879094849,8.791783069
11.35199446,3.771706696,3.240311737,8.033643951,9.448006493
11.36205646,2.842439117,3.685036926,9.124126282,10.24249177
11.37211946,2.247127075,4.601431274,10.32268387,11.52304439
11.38218146,2.34951416,5.80358139,11.84771255,13.40037561
11.39224446,3.217858429,6.849456482,13.68199814,15.6354322
11.40230646,4.540807343,7.354655914,16.0062149,18.19089911
11.41236846,6.173162842,7.53188736,18.75300293,21.13083968
11.42243146,8.30996933,7.796387329,21.08709915,23.96883385
11.43249346,10.47267197,7.993826752,22.51033951,26.08243679
11.44255646,12.09095673,7.958799591,23.17690338,27.32585911
11.45261846,13.56164841,8.152945862,23.69856857,28.49580647
11.46268146,14.80032257,8.586743774,24.38878326,29.79252366
11.47274346,15.45895294,8.899742889,24.20107361,30.0645408
11.48280546,15.08068954,8.85408783,22.4161853,28.430748
11.49286846,13.59173584,8.653205566,19.89198441,25.59891196
11.50293046,11.79906372,8.541687469,17.59770538,22.84420198
11.51299346,10.15188904,8.351133728,15.80563202,20.55773064
11.52305546,8.986562347,7.975415039,14.42460388,18.77324546
11.53311746,8.090825043,7.371421051,13.42363541,17.32031425
11.54318046,7.180268555,6.71982605,12.96708481,16.27444644
11.55324246,6.242768097,5.983207855,12.68956192,15.35564754
11.56330546,5.288652191,5.141059113,12.09993805,14.17070329
11.57336746,4.083508301,4.226910095,10.86410797,12.35194928
11.58343046,2.650987244,3.313808899,8.567134552,9.560588748
11.59349246,1.394051056,2.724035339,5.868845673,6.618692953
11.60355446,0.527802429,2.453847198,3.785627747,4.542127135
11.61361746,0.337398376,2.397713928,2.696941681,3.624412253
11.62367946,0.401016083,2.380200348,2.532433777,3.498483733
11.63374246,0.542771301,2.433639221,2.648592224,3.637614784
11.64380446,0.386047211,2.509980469,2.374362488,3.476583326
11.65386646,0.106728058,2.578687592,1.768721924,3.128801339
11.66392946,0.096249847,2.613265686,0.990939331,2.796494652
11.67399146,0.343385925,2.611918488,0.267044678,2.647894435
11.68405446,0.808019714,2.531535645,-0.274529114,2.671504223
11.69411646,1.337319031,2.283651123,-0.766855316,2.755277067
11.70417846,1.60765686,1.867366791,-1.035396881,2.672763741
11.71424146,1.528621216,1.51170639,-0.865799561,2.317660008
11.72430346,1.286275177,1.184486847,-0.412392426,1.796546808
11.73436646,1.108145599,0.774938507,0.167052612,1.362506123
11.74442846,0.848735046,0.4445755,0.878074036,1.299620162
11.75449146,0.584534454,0.293539581,1.484163666,1.621908691
11.76455346,0.434696045,0.176183624,1.939217377,1.995135423
11.77461546,0.302371216,0.165106659,2.13545929,2.16307072
11.78467846,0.117954712,0.08547226,1.73174881,1.737864426
11.79474046,0.09714798,0.087867279,1.023122406,1.031473629
11.80480346,0.192799072,0.120649109,0.586330719,0.628896972
11.81486546,0.319735107,0.280217285,0.557291107,0.700946249
11.82492746,0.501606903,0.464184723,0.812660065,1.061834885
11.83499046,0.86699707,0.606987762,1.509760437,1.843771852
11.84505246,1.471589813,0.992136841,2.656974792,3.195219419
11.85511546,2.09908493,1.636696472,3.950584717,4.763617585
11.86517746,2.725382538,2.503244476,5.045108643,6.256761471
11.87524046,2.871329041,3.560795288,6.117927704,7.6389026
11.88530246,2.480342102,4.85006424,7.424111481,9.208292532
11.89536446,2.072739716,6.299500122,8.996890869,11.17694041
11.90542746,1.842668152,7.896379395,10.68537964,13.41363379
11.91548946,1.909878387,9.325307922,12.15322723,15.43729042
11.92555246,2.221081238,10.46623535,12.93505142,16.78662681
11.93561446,2.349364471,11.39550293,13.16182983,17.56732094
11.94567646,2.039957886,12.1815184,13.47662521,18.28032401
11.95573942,2.216291199,12.96034882,14.03346725,19.23072519
11.96580142,3.390449524,13.31286575,15.51912781,20.72609154
11.97586442,5.627248077,13.26810883,17.72524017,22.84497257
11.98592642,8.950487366,13.49758163,20.56423645,26.17601488
11.99598842,12.39377701,13.96431107,23.88373352,30.31567942
12.00605142,14.52833817,13.89590332,25.36430466,32.3653625
12.01611342,14.20321426,13.07620789,23.16358109,30.15410415
12.02617642,11.42274628,12.33539841,19.31149155,25.60419677
12.03623842,8.167765045,11.59668457,16.02477631,21.40067603
12.04630142,5.728138275,10.3633992,13.07291473,17.63838742
12.05636342,4.077820129,9.006321259,10.35591476,14.3173814
12.06642542,2.984793091,7.862549744,8.185428314,11.73583891
12.07648842,2.32496521,6.819818115,6.780899048,9.894239448
12.08655042,2.202519836,5.815107422,6.046526184,8.673352688
12.09661342,2.600093079,4.99631012,5.90192688,8.158206894
12.10667542,3.414399719,4.531975708,5.989794159,8.250731078
12.11673742,4.09174118,4.262685699,5.810317383,8.286894675
12.12680042,4.268224182,3.815266113,5.171296234,7.714680676
12.13686242,3.952830048,3.302133179,4.420756989,6.787638858
12.14692542,3.229234772,2.834655304,3.853885803,5.771972253
12.15698742,2.345173187,2.461481323,3.609593811,4.958618262
12.16704942,1.501377869,2.256108398,3.64252533,4.540060725
12.17711242,0.987346802,2.240391083,3.75134903,4.479601037
12.18717442,0.895437927,2.305355988,3.498225403,4.284163428
12.19723742,1.035396881,2.332898712,2.681673431,3.702139313
12.20729942,1.386416931,2.47001358,1.672472076,3.289419681
12.21736242,1.812281342,2.690954132,0.645607452,3.307930892
12.22742442,2.005230103,2.945275269,-0.266595612,3.573047354
12.23748642,1.976789246,3.00949173,-0.991538086,3.734686596
12.24754942,1.801503754,2.848726044,-1.268312531,3.60128762
12.25761142,1.465602264,2.637964325,-1.039288788,3.191702831
12.26767442,1.228046265,2.407443695,-0.58034317,2.764178172
12.27773642,1.142574005,2.27347229,-0.115559692,2.547058235
12.28779842,1.218316498,2.229763184,0.198038177,2.548599236
12.29786142,1.301992493,2.178569641,0.348325653,2.561772998
12.30792342,1.473835144,2.141746216,0.596060486,2.667312315
12.31798642,1.845362549,2.208058319,0.957858124,3.032882567
12.32804842,2.060165863,2.266736298,1.417701874,3.375241536
12.33811042,1.973496094,2.163750458,1.954485626,3.520868776
12.34817342,1.769620056,2.123933258,2.417772217,3.672638033
12.35823542,1.749861145,2.075583801,2.695444794,3.825635212
12.36829842,1.905088348,2.066303101,2.967728577,4.087344251
12.37836042,1.950294342,2.13186676,3.408561859,4.4684223
12.38842242,1.886526947,2.401605835,3.947740631,4.991127187
12.39848542,1.754351807,2.861898651,4.688699799,5.766465118
12.40854742,1.40647522,3.67635498,5.755980377,6.973167759
12.41861042,0.725990295,4.89092926,7.188651123,8.724961656
12.42867242,0.12753479,6.372548218,8.826096039,10.88694664
12.43873442,0.561033325,7.764952698,10.97397949,13.45501671
12.44879742,2.404749298,8.744665375,14.06759628,16.73765984
12.45885942,4.97056366,9.239386597,17.61686554,20.50430977
12.46892242,7.357799377,9.66495163,20.34209839,23.6928147
12.47898442,8.899892578,10.10758118,21.45712967,25.33337125
12.48904742,9.400152283,10.42881317,21.56655212,25.73400819
12.49910942,9.407337341,10.74420731,21.62897232,25.91811008
12.50917142,9.745184784,10.93580887,22.09435455,26.50888616
12.51923442,10.34887939,10.83626587,22.74624893,27.23813142
12.52929642,10.43569885,10.41189835,22.82244049,27.16938033
12.53935942,9.761949921,9.862091675,21.82042419,25.85899129
12.54942142,8.41639801,9.212292938,20.14435959,23.69593467
12.55948342,6.922803955,8.490643616,18.32683914,21.3515638
12.56954642,5.714965668,7.708819427,16.35693558,18.96407317
12.57960842,4.924609222,6.963369598,13.96670609,16.36487614
12.58967142,4.526886292,6.341263275,11.28368546,13.7122528
12.59973342,4.316274261,5.838159485,8.848399658,11.44589473
12.60979542,4.358935547,5.307812347,6.899751892,9.735490085
12.61985842,4.494104462,4.626578979,5.372178497,8.394195004
12.62992042,4.371509399,3.890709229,4.323159943,7.275810925
12.63998342,3.963457947,3.210972748,3.556604004,6.218422382
12.65004542,3.335214386,2.634222107,2.717748413,5.044693999
12.66010842,2.501298523,2.083666992,2.109114075,3.878984998
12.67017042,1.589394836,1.592837677,1.785187683,2.872316639
12.68023242,0.648750916,1.28238327,1.452429657,2.043266138
12.69029542,-0.224982147,1.203347626,1.125359802,1.66285813
12.70035742,-0.879570923,1.240620117,0.68796936,1.66915701
12.71042042,-1.234033813,1.304387512,0.119152222,1.79957314
12.72048242,-1.338067474,1.316512299,-0.489931183,1.940015918
12.73054442,-1.169967041,1.369951172,-0.904568939,2.015895349
12.74060742,-0.952619019,1.334774323,-0.993783417,1.917475154
12.75066942,-0.403111725,1.365610199,-0.720900879,1.595960011
12.76073242,0.101189575,1.402433624,-0.138013,1.412836505
12.77079442,0.298479309,1.332229614,0.438138885,1.433837971
12.78085642,0.218246155,1.281335449,0.982407074,1.629286831
12.79091942,0.143551483,1.247655487,1.697619781,2.111673309
12.80098142,0.303568726,1.087638245,2.536175995,2.77620237
12.81104442,0.702339478,0.951421509,3.454216919,3.651040694
12.82110642,1.126407623,1.008153534,4.453089752,4.702677538
12.83116842,1.363963623,1.352437592,5.422024841,5.752202846
12.84123142,1.496887207,1.713486786,6.059549103,6.472622622
12.85129342,1.855541382,2.001487885,6.256240082,6.825652169
12.86135642,2.549049225,2.194286957,6.128705292,6.990963864
12.87141842,3.270848236,2.210603027,5.826783142,7.038225324
12.88148042,3.986060944,2.14833252,5.616320801,7.214365793
12.89154342,4.781806183,2.12138855,6.179449768,8.096391739
12.90160542,5.682932281,2.069446564,7.28026062,9.464698785
12.91166842,6.102509766,1.853745117,8.949738922,10.98975992
12.92173042,6.279741211,1.78084671,10.699151,12.53309207
12.93179242,5.789510651,2.119292908,11.70086792,13.22573802
12.94185542,4.772525482,2.587369537,11.46525787,12.68556734
12.95191754,3.550766144,3.182831268,10.82069824,11.82479875
12.96198054,3.282823334,4.675377502,10.84015778,12.25337115
12.97204254,4.134252777,6.010301514,12.36847961,14.35949366
12.98210454,5.517077179,6.489455109,14.09184586,16.46606473
12.99216754,6.66833313,6.355184326,15.52960602,18.05612632
13.00222954,7.616461487,5.671106873,17.37392075,19.79962274
13.01229254,8.670270081,5.02085907,20.11711624,22.47400665
13.02235454,10.13931519,4.841232605,23.57911697,26.11930326
13.03241654,11.86492676,4.866080933,26.12442398,29.10224663
13.04247954,13.3984877,5.095553741,26.58381866,30.20237665
13.05254154,13.80848511,5.681136017,25.09142212,29.19809979
13.06260454,12.77623169,6.461014252,22.15542755,26.37877502
13.07266654,10.93955109,6.721622314,19.11240555,23.0247265
13.08272854,9.01081192,6.248156891,16.30199982,19.64661279
13.09279154,7.117848358,5.534590759,13.92419449,16.58850965
13.10285354,5.297334137,5.034181366,11.85459824,13.92609889
13.11291654,3.726800079,4.810995483,10.00145187,11.70742311
13.12297854,2.567460938,4.559518433,8.226443024,9.749637369
13.13304054,1.720671844,4.219575348,6.616989899,8.03430663
13.14310354,0.960851898,4.030817871,5.374872894,6.786750895
13.15316554,0.364042969,3.948040009,4.51416275,6.008095582
13.16322854,-0.199085999,3.802243195,4.025429077,5.540827357
13.17329054,-0.873583374,3.421734467,4.117787018,5.424719771
13.18335254,-1.507365417,3.006348267,4.500690765,5.618407049
13.19341554,-2.04534668,2.682122498,4.871769104,5.925483806
13.20347754,-2.326312408,2.368075562,5.165757751,6.140404257
13.21354054,-2.286944275,2.10147995,5.096152496,5.968006565
13.22360254,-2.085014191,2.002236328,4.403243408,5.267332057
13.23366454,-1.614392853,2.030826874,3.202739868,4.121658008
13.24372754,-1.059047699,2.273023224,1.955084381,3.179712494
13.25378954,-0.377814331,2.621947632,0.935105438,2.809230363
13.26385254,0.370030518,2.672392731,-0.236208801,2.708209757
13.27391454,0.946182404,2.286195831,-1.283281403,2.7872502
13.28397654,1.240470428,1.931283875,-1.643282776,2.822942183
13.29403954,1.298998718,1.850901031,-1.350940704,2.63406019
13.30410154,1.442550201,1.848805389,-0.401764526,2.379169432
13.31416454,2.178569641,1.857487335,0.718954926,2.951833509
13.32422654,3.719914398,2.010768585,1.812580719,4.600695849
13.33428854,5.361550598,2.206860809,3.327430573,6.684927349
13.34435154,6.111940155,2.070793762,4.961432648,8.140013095
13.35441354,6.007158051,1.518143005,6.395749969,8.904848326
13.36447654,5.677393799,1.012045441,7.428602142,9.404316355
13.37453854,5.116360474,0.408949585,7.536827087,9.118560566
13.38460054,4.177363129,-0.174237671,6.450386353,7.686885297
13.39466354,3.0457164,-0.429756317,4.91787323,5.800565144
13.40472554,2.226020966,-0.282163239,3.78877121,4.403359253
13.41478854,1.149759064,-0.333356781,3.913761292,4.092749699
13.42485054,0.065863037,-0.645607452,5.635331268,5.67257485
13.43491254,-0.92088501,-0.730331268,8.16956131,8.253674634
13.44497554,-1.822759552,-0.389190674,10.10039612,10.27092613
13.45503754,-2.07573349,0.146694946,10.80108902,10.99971422
13.46510054,-1.80075531,0.860410767,10.57760376,10.76423372
13.47516254,-0.764909363,1.886077881,9.994416504,10.19954594
13.48522454,0.824036407,3.304677887,9.285490723,9.89041303
13.49528754,2.898722076,5.260211334,9.424102478,11.17524588
13.50534954,5.289250946,7.008126526,11.26407623,14.28178653
13.51541254,7.807464294,7.315587158,14.36233337,17.90952077
13.52547454,10.32388138,6.463409271,16.91168198,20.84138127
13.53553654,12.14110245,5.363795929,18.31755844,22.62099959
13.54559954,13.26406723,4.28603714,20.10529083,24.46483831
13.55566154,14.9989595,3.510499878,22.05783051,26.90428
13.56572454,16.60541885,2.911445618,23.55860962,28.96937241
13.57578654,16.95494202,2.232307892,23.88702667,29.37759862
13.58584854,15.46419205,1.443598022,23.2403714,27.95246096
13.59591154,12.80587006,1.34555191,22.24075012,25.69925648
13.60597354,10.05264542,1.855840759,20.34958282,22.77290816
13.61603654,7.267237701,2.285597076,17.57061172,19.15105987
13.62609854,5.046006775,2.614612885,14.73326202,15.7913709
13.63616054,3.607647858,3.009192352,12.54765701,13.39828564
13.64622354,2.906805267,3.362308044,11.01484451,11.87777049
13.65628554,2.76954071,3.528761902,9.906399536,10.87470772
13.66634854,2.823278961,3.522325287,8.881480865,9.962850088
13.67641054,2.872227173,3.506607971,7.756420441,8.983765716
13.68647254,2.419269104,3.788920898,6.639892273,8.018538144
13.69653554,1.418600006,4.177512817,5.621709595,7.146163872
13.70659754,0.436342621,4.634063416,4.35624115,6.375090241
13.71666054,-0.26914032,4.940476227,2.804118805,5.6871631
13.72672254,-0.653840332,4.889582062,1.591041412,5.1833322
13.73678454,-0.744252319,4.650379486,1.233435059,4.868398394
13.74684754,-0.599503326,4.325105896,1.5328125,4.627684022
13.75690954,-0.404458923,3.974385223,1.884730682,4.417186284
13.76697254,-0.261057129,3.689377899,1.84401535,4.132802042
13.77703454,-0.102087708,3.451372833,1.447190552,3.743895942
13.78709654,0.14280304,3.391048279,0.967138824,3.529158348
13.79715954,0.562380524,3.522175598,0.345780945,3.583511861
13.80722154,1.196012878,3.839665375,-0.290246429,4.032086307
13.81728454,1.539997559,3.935915222,-0.644559631,4.275333699
13.82734654,1.517394562,3.588487701,-0.461939392,3.923406459
13.83740854,1.241218872,2.966531067,0.565374298,3.265054204
13.84747154,1.001716919,2.287093964,2.309397583,3.401110522
13.85753354,1.05425766,1.694476318,4.019591217,4.487741387
13.86759554,1.129251709,1.188378754,5.183720398,5.436764723
13.87765854,1.253044281,0.869242401,5.63158905,5.834423498
13.88772054,1.632954254,0.71371582,5.51572998,5.796482303
13.89778354,2.6502388,0.795894928,5.135221252,5.833327673
13.90784554,3.632496185,0.93839859,5.174739075,6.391677788
13.91790754,3.979175262,0.943637695,5.911506958,7.188198828
13.92797054,3.917204132,0.909059601,7.034920807,8.103146816
13.93803254,3.715423737,0.987646179,8.411158905,9.248103192
13.94809554,3.810176697,1.321152649,9.951306152,10.73738259
13.95815817,4.296066284,1.791474609,11.23818008,12.16397379
13.96822017,5.08866806,2.149679718,10.91036179,12.22913161
13.97828317,5.413193207,2.586621094,9.573791199,11.29826302
13.98834517,4.631069641,3.648812256,9.366921387,11.06796518
13.99840817,3.439846802,5.280718689,10.68612808,12.40612225
14.00847017,3.509452057,5.825585632,14.23045761,15.77211544
14.01853217,5.656138,4.681065674,19.31328781,20.66173659
14.02859517,8.888665924,3.515888672,23.65276382,25.51123462
14.03865717,10.97397949,3.277883606,25.61443451,28.05836777
14.04872017,11.45807281,3.768114166,24.48218903,27.29219113
14.05878217,10.8450975,4.513414307,21.52868088,24.52490874
14.06884417,10.01642075,5.388644257,18.90224258,22.06039316
14.07890717,9.237290955,5.921087036,17.44382538,20.60761655
14.08896917,8.35786972,5.791755981,16.52593414,19.40373477
14.09903217,7.164251862,5.357209625,15.31959274,17.74024018
14.10909417,5.81884964,4.997956696,13.85743332,15.8387828
14.11915617,4.721182251,4.766837311,12.34617599,14.05134732
14.12921917,4.050726471,4.434228973,10.5332959,12.12522552
14.13928117,3.481909332,3.877835999,8.608598328,10.06326338
14.14934317,2.881507874,3.285817108,7.06141571,8.304412895
14.15940617,2.417023773,2.743644562,6.218668213,7.213974199
14.16946817,2.216590576,2.132764893,5.909860382,6.662462728
14.17953117,1.902992706,1.531315613,5.878874817,6.366119529
14.18959317,1.385518799,1.179846497,5.870192871,6.145800553
14.19965517,0.839753723,1.236428833,5.583389282,5.779980835
14.20971817,0.325872345,1.490001526,5.062322845,5.287098441
14.21978017,0.138911133,1.760339355,4.453538818,4.790834891
14.22984317,0.195194092,2.003284149,3.885320435,4.375724282
14.23990517,0.330363007,2.118843842,3.311413879,3.94513635
14.24996717,0.405506744,2.146236877,2.535726929,3.346741626
14.26003017,0.448916473,2.158511353,1.734293518,2.805079547
14.27009217,0.51253418,2.238894196,1.188079376,2.585898511
14.28015517,0.635129242,2.311044159,0.819994812,2.53312174
14.29021717,0.850980377,2.404898987,0.634081421,2.628643374
14.30027917,1.082399139,2.596051483,0.693956909,2.897006626
14.31034217,1.298100586,2.805615692,1.047821045,3.264119098
14.32040417,1.516047363,2.941832428,1.678160248,3.710660246
14.33046617,1.742975464,2.984493713,2.32032486,4.162820396
14.34052917,2.038610687,2.884801025,2.926863556,4.587432917
14.35059117,2.226470032,2.715203705,3.609294434,5.035524428
14.36065417,2.010469208,2.349813538,4.169579315,5.191242796
14.37071617,1.601369934,2.018702087,4.51416275,5.197808107
14.38077817,1.500629425,1.865720215,4.999004517,5.542819386
14.39084117,2.086511078,1.795815582,5.800437927,6.420557782
14.40090317,2.769241333,1.713337097,6.81697403,7.554823392
14.41096617,3.514092407,1.849703522,7.902516632,8.844208143
14.42102817,4.145180054,2.218087463,9.079069977,10.22408633
14.43109017,4.125121765,2.461631012,10.62505508,11.66053397
14.44115317,3.775748291,2.944826202,12.41503281,13.3064389
14.45121517,3.210373993,3.586392059,14.68057159,15.44952723
14.46127817,3.29030777,4.09174118,17.13875977,17.92499811
14.47134017,4.642595673,4.188589783,19.05672134,20.05633584
14.48140217,6.332880707,4.439917145,20.03284149,21.47400709
14.49146517,7.20182373,5.11800705,20.68743027,22.4951113
14.50152717,7.22532486,5.644162903,21.61520096,23.47932722
14.51158917,7.155569916,5.677393799,22.57799881,24.35571825
14.52165217,7.165000305,5.436095581,23.51250549,25.17392061
14.53171417,7.197632446,5.157674561,24.26843353,25.83339672
14.54177717,7.331903229,4.749024353,24.41318253,25.9290092
14.55183917,7.291038208,4.371659088,23.98986282,25.45160426
14.56190117,6.681805115,4.140240326,22.99712723,24.30341479
14.57196417,5.692662048,4.11524231,21.01524857,22.15812024
14.58202617,4.666396179,4.23454422,18.40826981,19.45690148
14.59208917,4.006268921,4.391417999,15.54801773,16.64558795
14.60215117,3.464545441,4.430786133,12.82024017,13.99976782
14.61221317,2.983595581,4.310137024,10.68792435,11.90423667
14.62227617,2.686762848,4.163891144,9.190438385,10.4413046
14.63233817,2.724783783,3.769910431,7.971223755,9.229142943
14.64240117,2.744093628,3.130589905,6.841822357,8.008818649
14.65246317,2.465971985,2.565814362,5.804030457,6.808170878
14.66252517,1.870809631,2.251168671,4.837789764,5.654369891
14.67258817,0.902024231,2.027533722,3.969146118,4.547379643
14.68265017,0.059426422,1.948947144,3.142714691,3.698456718
14.69271217,-0.542022858,2.127974854,2.25940155,3.150708035
14.70277517,-0.983454895,2.436932373,1.444196777,2.998587543
14.71283717,-1.009351044,2.671943665,0.847537537,2.9793275
14.72290017,-0.646954651,2.722538452,0.382304993,2.824344712
14.73296217,-0.02335144,2.673889618,-0.043409729,2.674343916
14.74302417,0.410147095,2.649640045,-0.387843475,2.709102355
14.75308717,0.522713013,2.574795685,-0.777333527,2.739899473
14.76314917,0.455353088,2.448308716,-1.233435059,2.779014942
14.77321217,0.277672577,2.197580109,-1.714833984,2.801270424
14.78327417,0.184566193,1.917213135,-2.034419403,2.801541217
14.79333617,0.166304169,1.680704956,-2.063459015,2.666512579
14.80339917,0.14504837,1.590891724,-1.777553558,2.389910492
14.81346117,-0.033829651,1.507964172,-0.955612793,1.785580074
14.82352317,-0.273032227,1.314117279,0.138611755,1.349319843
14.83358617,-0.559087372,1.09287735,1.068777466,1.627650104
14.84364817,-0.814156952,0.929866333,1.80898819,2.190876813
14.85371117,-0.936003571,0.928668823,2.342179413,2.687811911
14.86377317,-0.929716644,1.010698242,2.752326508,3.075903961
14.87383517,-0.75473053,1.152902527,3.05275177,3.349342589
14.88389817,-0.380658417,1.253343658,3.320095825,3.569146599
14.89396017,0.093256073,1.299298096,3.876937866,4.089929028
14.90402317,0.661175079,1.343755646,4.806205444,5.034127779
14.91408517,1.28822113,1.389261017,5.806126099,6.107426637
14.92414717,1.695524139,1.305884399,6.780899048,7.11060673
14.93421017,1.729802856,1.235680389,7.603288879,7.894879716
14.94427217,1.533860321,1.446442108,8.231233063,8.496947687
14.95433392,1.459465027,2.022144928,8.898844757,9.241674431
14.96439692,1.300196228,2.690954132,10.01477417,10.45119352
14.97445892,1.127605133,3.873644714,11.24177261,11.94378785
14.98452192,0.843945007,5.612728271,12.40724899,13.64385537
14.99458392,0.149539032,7.327861633,14.12402893,15.9125143
15.00464592,-0.415835266,8.534352722,16.87845108,18.91798632
15.01470892,0.150137787,8.964857483,19.92177246,21.84646949
15.02477092,1.573378143,8.209079132,22.49177811,23.99467819
15.03483392,2.878065033,7.219487,23.15684509,24.42629169
15.04489592,3.639980621,6.929989014,21.85500229,23.21455
15.05495792,4.321962433,7.138355713,20.45915497,22.0955313
15.06502092,5.692212982,7.320975952,20.46499283,22.4680642
15.07508292,7.133116608,7.340884552,21.80231186,24.08548818
15.08514492,7.617808685,7.630382538,22.87378372,25.28762007
15.09520792,6.691085815,8.165070648,22.95356781,25.2647043
15.10526992,5.544470215,8.046367493,22.12339417,24.18532094
15.11533292,5.060825958,7.322023773,20.31710037,22.18126595
15.12539492,4.645888824,6.84032547,17.76550644,19.59560039
15.13545692,4.223167877,6.41910141,14.76065506,16.64082172
15.14551992,4.005071411,5.833219757,11.50761978,13.50897342
15.15558192,3.651057587,5.112618256,8.627309418,10.67237343
15.16564392,3.352428589,4.481979675,6.392007751,8.496156916
15.17570692,3.094365234,3.9255867,4.655917969,6.83102476
15.18576892,3.003204803,3.465593262,3.493285675,5.764774111
15.19583192,3.047812042,3.128494263,2.983445892,5.289384084
15.20589392,3.044818268,2.909050598,2.999911652,5.170392982
15.21595592,2.878663788,2.714754639,3.296295319,5.149967066
15.22601892,2.417023773,2.417772217,3.710783386,5.045546527
15.23608092,1.795067139,2.027982788,4.061054993,4.88130596
15.24614392,1.260379028,1.585053864,4.271816711,4.727511931
15.25620592,0.94079361,1.243613892,4.580474854,4.838638033
15.26626792,0.733474731,1.0975177,4.926854553,5.100629968
15.27633092,0.599503326,1.154249725,5.211263123,5.371122788
15.28639292,0.593665466,1.355581055,5.248834991,5.45346747
15.29645492,0.502505035,1.548529816,4.939129028,5.200524152
15.30651792,0.625399475,1.784738617,4.137695618,4.54938913
15.31657992,0.823138275,2.143243103,3.296894073,4.01753135
15.32664292,0.859512634,2.419269104,2.625540161,3.672204529
15.33670492,0.718356171,2.570754089,2.106419678,3.400267053
15.34676692,0.493224335,2.562072144,1.801653442,3.170715856
15.35682992,0.344583435,2.484683075,1.7106427,3.03622894
15.36689192,0.26330246,2.410437469,1.830842743,3.038342003
15.37695492,0.180973663,2.365381165,2.219883728,3.248948028
15.38701692,0.172441406,2.210603027,2.835254059,3.599328738
15.39707892,0.257913666,2.015109558,3.434757385,3.990581948
15.40714192,0.368383942,1.83473465,3.838767242,4.270607908
15.41720392,0.636326752,1.831890564,4.179758148,4.607723185
15.42726592,0.971330109,1.889071655,4.551884308,5.023119016
15.43732892,1.440454559,1.852697296,5.144501953,5.654493519
15.44739092,1.911524963,1.750160522,5.838159485,6.387573539
15.45745392,1.995799713,1.588047638,6.391558685,6.881651998
15.46751592,1.857337646,1.589694214,7.028484192,7.441533502
15.47757792,1.679357758,1.849254456,8.220605164,8.591759644
15.48764092,1.105600891,2.286794586,10.16236725,10.4749936
15.49770292,0.331261139,2.981799316,12.47954865,12.83510793
15.50776492,-0.384101257,3.743565216,14.84822296,15.31768714
15.51782792,-0.300874329,4.628973999,16.46081955,17.10194451
15.52788992,0.584534454,5.497467957,17.19489304,18.06178787
15.53795292,1.85105072,5.816604309,17.39637405,18.43619008
15.54801492,2.846331024,5.753735046,17.3731723,18.52118201
15.55807692,3.380869446,5.647456055,17.28365845,18.49456373
15.56813992,3.830085297,5.454656982,17.63078659,18.84854031
15.57820192,4.399351501,5.117707672,18.47817444,19.67201454
15.58826392,4.942721558,4.388424225,19.53273148,20.62077502
15.59832692,5.295537872,3.328029327,20.48520081,21.41872901
15.60838892,5.646258545,2.413281555,20.94788864,21.82929687
15.61845192,5.887407074,1.822759552,20.67365891,21.57276494
15.62851392,5.983207855,1.550625458,19.47525101,20.4325382
15.63857592,5.664969635,1.430874481,17.43199997,18.38515449
15.64863892,5.059329071,1.314416656,15.08607834,15.96603462
15.65870092,4.533921661,1.344204712,12.59630585,13.45474834
15.66876392,3.898942108,1.327888641,10.20652542,11.00627998
15.67882592,3.270997925,1.282233582,8.322094116,9.033316161
15.68888792,2.74858429,1.422491913,6.971153412,7.627265482
15.69895092,2.171833649,1.641935577,5.76151886,6.372433869
15.70901292,1.485810242,1.797611847,4.681814117,5.230528067
15.71907492,0.839903412,1.879341888,3.87184845,4.385039805
15.72913792,0.129331055,1.921554108,3.418291626,3.92349517
15.73919992,-0.609981537,1.909728699,3.253783722,3.821812356
15.74926192,-1.181493073,1.922302551,3.482657776,4.149708202
15.75932492,-1.569336548,1.986668701,3.928730164,4.673819683
15.76938692,-1.687740326,2.126477966,4.381388855,5.154313169
15.77944992,-1.583556976,2.316582642,4.741090851,5.509278563
15.78951192,-1.257385254,2.616708527,4.863386536,5.663983562
15.79957392,-0.757275238,2.935844879,4.697980499,5.591392645
15.80963692,-0.17318985,3.204236755,4.369563446,5.421274077
15.81969892,0.47735733,3.457959137,4.003275146,5.311455856
15.82976092,1.126856689,3.726500702,3.679797821,5.357007139
15.83982392,1.588047638,3.886368256,3.45765976,5.438856914
15.84988592,1.810036011,3.822301483,3.335364075,5.386174199
15.85994892,1.813478851,3.618425446,3.375181274,5.270062323
15.87001092,1.704954529,3.337010651,3.534599762,5.151301341
15.88007292,1.608704681,3.06322998,3.642974396,5.024198554
15.89013592,1.732347565,2.86324585,3.799399109,5.063066113
15.90019792,2.143243103,2.682571564,4.309238892,5.509920237
15.91025992,2.707868958,2.4034021,5.062771912,6.224191142
15.92032292,3.345842285,2.129322052,5.943540344,7.145232314
15.93038492,3.54298233,1.890568542,7.220085754,8.261755958
15.94044792,3.30198349,1.681902466,8.919801178,9.658920433
15.95050992,2.891686707,1.39000946,10.7097789,11.18004215
15.96057117,2.299667816,0.980012054,12.60932877,12.85472939
15.97063417,1.82889679,0.546513519,14.43148956,14.55717801
15.98069617,1.475781097,0.311651917,15.74710373,15.8191761
15.99075817,1.099763031,0.669108582,16.07207794,16.1235503
16.00082117,0.833017731,1.830094299,15.43335617,15.5637928
16.01088317,1.04018692,3.219654694,14.69479202,15.07929301
16.02094617,1.726509705,4.480183411,14.72757385,15.4904587
16.03100817,2.451751556,5.456602936,15.488741,16.6038158
16.04107017,3.045267334,5.974974976,16.20230713,17.53535672
16.05113317,3.347488861,6.229445801,16.66559372,18.10396892
16.06119517,3.57696167,6.364614716,16.95194824,18.4572892
16.07125717,3.963008881,6.138884125,17.22902206,18.71444733
16.08132017,4.163741455,5.325475616,18.23732529,19.44987062
16.09138217,4.441114655,4.420008545,19.92237122,20.88446432
16.10144517,4.812192993,3.765569458,20.5331012,21.42300071
16.11150717,4.57269104,3.347488861,19.28335007,20.09882521
16.12156917,3.74072113,3.021766205,17.41493546,18.06665554
16.13163217,2.96727951,2.762505341,15.71477097,16.22930097
16.14169417,2.682421875,2.511177979,14.36981781,14.83216322
16.15175617,2.779569855,2.282004547,13.0812973,13.56664632
16.16181917,3.025957489,1.97978302,11.67931274,12.22629567
16.17188117,3.101101227,1.631756744,10.17943176,10.76569969
16.18194417,2.742297363,1.295406189,8.674161987,9.189089085
16.19200617,2.003583527,1.04961731,7.439978485,7.77620237
16.20206817,1.053658905,1.009500732,6.542744293,6.703491009
16.21213117,0.068557434,1.202000427,5.817053375,5.940337963
16.22219317,-0.54756134,1.586999817,5.225932617,5.48896744
16.23225517,-0.522713013,2.060315552,4.526586914,5.00081175
16.24231817,-0.168998566,2.41627533,3.78637619,4.494840557
16.25238017,0.403560791,2.604284363,3.161126404,4.115565392
16.26244317,0.930914154,2.783312073,2.594255219,3.917089148
16.27250517,1.311422882,2.979104919,1.977837067,3.808770872
16.28256717,1.482367401,3.233575745,1.387015686,3.818014893
16.29263017,1.436712341,3.404520264,0.943937073,3.813911086
16.30269217,1.222807159,3.446283417,0.804127808,3.744161891
16.31275417,1.018781433,3.367098083,0.8705896,3.623974526
16.32281717,0.838107147,3.224594421,1.032702484,3.488109401
16.33287917,0.543669434,3.053200836,1.24496109,3.341786934
16.34294117,0.264799347,2.881507874,1.467398529,3.244451381
16.35300417,0.214204559,2.741099854,1.750908966,3.259630993
16.36306617,0.334703979,2.623893585,2.224524078,3.456204808
16.37312917,0.585582275,2.441123657,2.852468262,3.799811376
16.38319117,0.914598083,2.297871552,3.591481476,4.360669961
16.39325317,1.178648987,2.140399017,4.223616943,4.879493977
16.40331617,1.313368835,1.902393951,4.656816101,5.199036126
16.41337817,1.423090668,1.536105652,4.946014709,5.371021237
16.42344017,1.370998993,1.169667664,5.16006958,5.465718503
16.43350317,1.233884125,0.894689484,5.514382782,5.721132473
16.44356517,0.899479523,0.476159821,6.253096619,6.335377566
16.45362717,0.229921875,-0.112565918,7.42066864,7.425083045
16.46369017,-0.672401733,-0.145796814,8.667725372,8.694989588
16.47375217,-1.747017059,0.378113708,9.786798248,9.948691298
16.48381517,-2.627037048,1.228195953,10.96410004,11.34113216
16.49387717,-2.526895294,2.372117157,12.33479965,12.81247135
16.50393917,-1.486708374,3.466641083,13.73528732,14.24380637
16.51400217,-0.056732025,4.135001221,15.450271,15.99413416
16.52406417,1.306333466,4.282743988,17.01541626,17.59468083
16.53412617,1.985022125,4.135899353,17.63138535,18.21844465
16.54418917,2.169139252,4.050127716,17.94872543,18.52742411
16.55425117,2.611020355,3.964356079,19.0480394,19.6306228
16.56431417,3.805835724,3.547472992,21.11988098,21.75128325
16.57437617,5.44792099,2.958447876,24.34776855,25.12461125
16.58443817,6.772965546,2.342628479,27.09934662,28.03097497
16.59450117,6.929689636,1.614093475,27.31849091,28.22987498
16.60456317,5.851332092,1.483115845,25.48675003,26.19183359
16.61462517,4.608316956,2.250719604,22.78816177,23.35813864
16.62468817,3.943998413,3.095712433,19.45519272,20.09087063
16.63475017,3.837719421,3.587739258,16.24212433,17.07063461
16.64481317,3.871100006,3.792064362,13.43845459,14.48990094
16.65487517,3.660188599,3.855532379,11.16049164,12.36198544
16.66493717,3.153043213,3.865262146,9.363328857,10.60914041
16.67500017,2.668051758,3.804488525,7.872129822,9.141283337
16.68506217,2.346520386,3.74895401,6.643484802,7.981021514
16.69512417,2.08037384,3.657194824,5.704337769,7.088194317
16.70518717,1.861379242,3.546275482,5.101990356,6.486224485
16.71524917,1.679806824,3.490890656,4.845423889,6.203724784
16.72531117,1.603315887,3.556753693,4.887636108,6.253807272
16.73537417,1.226100311,3.563339996,5.00095047,6.261806409
16.74543617,0.660127258,3.500321045,5.139711914,6.253371409
16.75549917,0.303868103,3.524420929,5.183720398,6.275733891
16.76556117,0.312100983,3.561992798,4.939428406,6.097799004
16.77562317,0.610879669,3.590882721,4.388274536,5.703031307
16.78568617,0.818797302,3.733985138,3.738326111,5.34678933
16.79574817,1.025667114,3.8565802,3.049009552,5.022117394
16.80581017,1.246008911,3.945345612,2.36118988,4.76377034
16.81587317,1.446142731,4.004322968,1.735790405,4.597705902
16.82593517,1.410816193,3.977977753,1.23448288,4.397574026
16.83599717,1.218466187,3.852987671,0.838855591,4.127208808
16.84606017,1.024469604,3.694167938,0.629740448,3.884969467
16.85612217,0.763861542,3.554957428,0.61552002,3.687827499
16.86618517,0.662073212,3.375330963,0.793050842,3.529890889
16.87624717,0.771645355,3.107388153,1.296603699,3.454342027
16.88630917,0.983454895,2.788251801,2.08276886,3.616553298
16.89637217,1.15604599,2.37181778,2.992726593,3.98978375
16.90643417,1.224304047,1.989662476,4.187991028,4.795513113
16.91649617,1.235530701,1.6708255,5.441484375,5.824770053
16.92655917,1.188528442,1.509011993,6.42957962,6.71038085
16.93662117,1.000968475,1.574425964,7.113806763,7.354386559
16.94668417,0.442479858,1.668430481,7.49910553,7.695195413
16.95674671,-0.423020325,1.801803131,7.690108337,7.909690699
16.96680871,-1.514251099,2.175875244,8.478219452,8.882994683
16.97687171,-2.303410034,2.697540436,10.30472122,10.8981513
16.98693371,-2.31912735,3.115471344,13.01139267,13.57869112
16.99699571,-1.479972382,3.028801575,16.19766678,16.54473833
17.00705871,-0.155227203,2.495310974,19.07692932,19.24005989
17.01712071,0.532891846,2.186802521,20.62441132,20.74686533
17.02718271,0.55699173,2.37181778,20.43834824,20.58304734
17.03724571,0.481249237,2.724484406,19.2165889,19.41472907
17.04730771,0.965192871,2.930156708,18.69881561,18.95159943
17.05736971,2.183060303,3.004102936,19.6014386,19.95010731
17.06743271,3.661535797,2.819237366,21.14413055,21.64322528
17.07749471,4.638853455,2.28050766,22.37232651,22.96172184
17.08755771,4.805606689,1.789977722,22.40421021,22.98361396
17.09761971,4.383484497,1.573078766,21.07482468,21.58327473
17.10768171,3.550915833,1.532513123,18.87095764,19.26319397
17.11774471,2.84917511,1.722617798,16.63236282,16.96233191
17.12780671,2.242187347,2.132764893,14.50573517,14.83214222
17.13786871,1.808688812,2.634072418,12.42371475,12.82803106
17.14793171,1.515747986,2.964884491,10.35112473,10.87353738
17.15799371,1.167422333,2.99078064,8.507558441,9.093194948
17.16805571,0.917741547,2.82687149,6.873855743,7.488881409
17.17811871,0.965192871,2.59410553,5.550607452,6.20243693
17.18818071,1.058748322,2.426903229,4.628973999,5.332748595
17.19824371,0.89394104,2.269430695,4.068988495,4.74406088
17.20830571,0.553848267,2.214045868,3.809577942,4.440904311
17.21836771,0.157322845,2.285597076,3.703598328,4.354921933
17.22843071,-0.059127045,2.397863617,3.572021942,4.302625557
17.23849271,-0.067958679,2.467319183,3.320544891,4.137426822
17.24855471,-0.168250122,2.428400116,3.03523819,3.890771915
17.25861771,-0.241597595,2.388283539,2.785557404,3.677172515
17.26867971,-0.280366974,2.318977661,2.452350311,3.386780932
17.27874171,-0.300874329,2.158661041,2.056723022,2.996740303
17.28880471,-0.370030518,1.992805939,1.799258423,2.710263634
17.29886671,-0.3264711,1.90957901,1.748663635,2.609770083
17.30892971,-0.096249847,1.935624847,1.728455658,2.596818543
17.31899171,0.107177124,2.019151154,1.571881256,2.561106987
17.32905371,0.305664368,2.078727264,1.409468994,2.530047547
17.33911671,0.649499359,2.142045593,1.548829193,2.721962639
17.34917871,0.978814545,2.007774811,1.73519165,2.828449693
17.35924071,1.012644196,1.696422272,1.906884613,2.745816039
17.36930371,0.82253952,1.482217712,2.276615753,2.83840094
17.37936571,0.685274963,1.395847321,2.80471756,3.206935002
17.38942771,0.565973053,1.284329224,3.489842834,3.761493063
17.39949071,0.690065002,1.242416382,4.333039398,4.560155546
17.40955271,0.926423492,1.206191711,5.226531372,5.443325189
17.41961471,1.299447784,1.278491364,6.097120972,6.363803018
17.42967771,1.827998657,1.583407288,7.011419678,7.416789307
17.43973971,2.231709137,1.966460724,8.13438446,8.661160661
17.44980271,2.611020355,2.587369537,9.239536285,9.94388954
17.45986471,2.508483582,3.204685822,10.66951263,11.41932577
17.46992671,1.734742584,3.65539856,12.96139664,13.57825737
17.47998971,0.403111725,4.010759583,15.74530746,16.25310428
17.49005171,-0.449215851,4.421355743,18.36141724,18.89158078
17.50011371,-0.292042694,4.663552094,20.57531342,21.09923054
17.51017671,1.043480072,4.537364502,22.06815903,22.55393913
17.52023871,2.446213074,4.254153442,22.50629791,23.03508684
17.53030071,3.106040955,4.225862274,22.1388121,22.75153629
17.54036371,3.047063599,4.582720184,21.53990753,22.23181363
17.55042571,2.978655853,5.215454407,21.51820267,22.34068937
17.56048871,3.639980621,5.675597534,22.20347763,23.20466085
17.57055071,4.406087494,5.347180481,23.53301285,24.53178835
17.58061271,4.957241364,4.367767181,24.90895157,25.77028328
17.59067571,5.208269348,3.454665985,25.59841782,26.35032792
17.60073771,5.270988922,2.737207947,24.52664658,25.23553098
17.61079971,4.945116577,2.400558014,21.95499435,22.6326895
17.62086271,4.077221375,2.60458374,18.8808371,19.4908594
17.63092471,3.356470184,3.019371185,15.83347412,16.46454971
17.64098671,3.023412781,3.375031586,13.01797897,13.78403568
17.65104971,2.854563904,3.668870544,10.62191162,11.59457428
17.66111171,2.864742737,3.698957977,8.517288208,9.717676651
17.67117371,2.993624725,3.47981369,6.603667603,8.042345312
17.68123671,2.964884491,2.991678772,5.03253479,6.562551968
17.69129871,2.653831329,2.452200623,4.001778259,5.391691558
17.70136171,2.070344696,2.116149445,3.613485718,4.671369678
17.71142371,1.48251709,2.111209717,3.761228485,4.560910338
17.72148571,1.197509766,2.318528595,3.94085495,4.726514807
17.73154871,1.292861481,2.462828522,3.825295258,4.729682753
17.74161071,1.775607605,2.550995178,3.390000458,4.599180565
17.75167271,2.400707703,2.63736557,2.798430634,4.533244824
17.76173571,2.591411133,2.493664398,2.301015015,4.269478175
17.77179771,2.495909729,2.20446579,1.92125473,3.844535672
17.78185971,2.397264862,1.900447998,1.463506622,3.39122884
17.79192271,2.192041626,1.636247406,1.027762756,2.922096567
17.80198471,2.020947418,1.42982666,0.767903137,2.591969902
17.81204671,1.77381134,1.23328537,0.639619904,2.253111869
17.82210971,1.374741211,0.997675323,0.482596436,1.765833732
17.83217171,0.900677032,0.776435394,0.325572968,1.232910701
17.84223471,0.497116241,0.593515778,0.264799347,0.818232381
17.85229671,0.189206543,0.584235077,0.298030243,0.682606597
17.86235871,0.047900391,0.642014923,0.559087372,0.852675963
17.87242171,0.094303894,0.699495392,1.005459137,1.228468601
17.88248371,0.216599579,0.696501617,1.463356934,1.635066786
17.89254571,0.15328125,0.511636047,1.530118103,1.620656656
17.90260871,-0.01167572,0.209713898,1.41815094,1.433620706
17.91267071,-0.119451599,0.005688171,1.533860321,1.538515039
17.92273271,-0.351768494,-0.127085724,1.933978271,1.969813141
17.93279571,-0.76880127,-0.242046661,2.562221832,2.686004969
17.94285771,-1.396446075,-0.223634949,3.56528595,3.835536225
17.95291971,-2.205214233,-0.156724091,5.305417328,5.747606918
17.96298304,-3.165018311,0.09595047,7.582931213,8.21750529
17.97304504,-4.410727844,0.602497101,10.2665506,11.19015568
17.98310804,-5.756429443,1.427281952,12.97950897,14.27029316
17.99317004,-6.655160522,2.561174011,15.13158371,16.7276896
18.00323204,-6.078110504,3.533402252,16.48087784,17.9178038
18.01329504,-4.525090027,4.24038208,17.79559387,18.84517024
18.02335704,-3.145558777,4.830005951,20.27713348,21.08045635
18.03341904,-1.996847534,5.575904846,23.7526062,24.47987778
18.04348204,-1.136436768,6.140381012,25.95722168,26.69781124
18.05354404,-0.836909637,5.987698517,25.76502136,26.46486873
18.06360604,-1.025966492,5.7755896,24.84114258,25.5243493
18.07366904,-1.294358368,6.078110504,24.8594046,25.62437878
18.08373104,-0.952768707,6.58286087,25.65350327,26.50177457
18.09379304,-0.111667786,6.743027802,26.22815826,27.08130683
18.10385604,0.586779785,6.64378418,26.03101822,26.87188286
18.11391804,0.789308624,6.624773712,25.12704803,25.99767639
18.12398104,1.133592682,6.57118515,23.35009323,24.28358212
18.13404304,2.052831116,6.288572845,20.60689774,21.6426546
18.14410504,2.75442215,5.832770691,17.17273911,18.3442368
18.15416804,2.991678772,5.241051178,13.35941895,14.65922351
18.16423004,2.887046356,4.75755661,9.456435242,10.97239942
18.17429204,2.574645996,4.411775665,5.565426636,7.55423988
18.18435504,2.250420227,4.168531494,1.985022125,5.136278697
18.19441704,1.951641541,3.835025024,-1.1174263,4.445780379
18.20447904,1.932631073,3.298690338,-3.401825867,5.117503301
18.21454204,2.139949951,2.742746429,-4.414470062,5.620461698
18.22460404,2.537074127,2.111658783,-3.966002655,5.159944283
18.23466604,2.843037872,1.320853271,-2.387984161,3.940810331
18.24472904,2.810256042,0.597557373,-0.443078613,2.907048761
18.25479104,2.41507782,0.056732025,1.143023071,2.67251214
18.26485304,1.767524414,-0.252674561,2.276765442,2.893380007
18.27491604,1.124311981,-0.228275299,2.984044647,3.196984438
18.28497804,0.685274963,0.015867004,3.316802673,3.386891423
18.29504004,0.422122192,0.289198608,3.258424072,3.298355714
18.30510304,0.480650482,0.446222076,2.974763947,3.046204124
18.31516504,0.885558472,0.553249512,2.417772217,2.633613738
18.32522804,1.2952565,0.673449554,1.676064606,2.222704719
18.33529004,1.398541718,0.882714386,1.141077118,2.009268676
18.34535204,1.24376358,1.111438751,0.943637695,1.916427938
18.35541504,0.997974701,1.236877899,0.922681274,1.83770541
18.36547704,0.59905426,1.273551636,0.944984894,1.695227485
18.37553904,0.146994324,1.277144165,1.253942413,1.795849695
18.38560204,-0.156424713,1.235381012,1.863325195,2.241119301
18.39566404,-0.444126434,1.168021088,2.662812653,2.941443995
18.40572604,-0.722397766,1.138682098,3.696862335,3.935129805
18.41578904,-0.951122131,1.233884125,4.940476227,5.180290406
18.42585104,-0.904718628,1.232536926,6.118825836,6.306955897
18.43591304,-0.631237335,1.094224548,7.176526337,7.286859282
18.44597604,-0.377215576,1.11039093,8.221802673,8.305016485
18.45603804,-0.508642273,1.383572845,9.56540863,9.678328009
18.46610004,-0.867895203,1.814975739,10.8557254,11.04056851
18.47616304,-1.286724243,2.491269379,11.98003738,12.30379527
18.48622504,-1.66498764,3.229085083,13.23667419,13.72620552
18.49628804,-1.704355774,3.989354095,15.0507518,15.66348954
18.50635004,-1.18059494,4.895419922,16.89596466,17.63044419
18.51641204,-0.020507355,5.969436493,18.75240417,19.67961521
18.52647504,1.064286804,6.720574493,20.11756531,21.2371199
18.53653704,1.347348175,7.023394775,21.12826355,22.30576029
18.54659904,1.154998169,7.07204361,21.92011688,23.0616423
18.55666204,0.939745789,7.040159912,22.14614685,23.25723101
18.56672404,0.524060211,7.312144318,21.70830734,22.9127192
18.57678604,0.313298492,8.019273834,20.91301117,22.40002109
18.58684904,0.907562714,8.890911255,19.9132402,21.82679794
18.59691104,1.635199585,9.421408081,18.8184169,21.10852014
18.60697304,1.95403656,9.75730957,18.00500839,20.57191474
18.61703604,1.965861969,9.507030029,17.49082764,20.00443163
18.62709804,2.041903839,8.533304901,17.12813187,19.24472824
18.63716004,2.245779877,7.215744781,16.42130173,18.07677102
18.64722304,2.326761475,6.152954865,15.14340912,16.51046675
18.65728504,2.196083221,5.482948151,13.19685699,14.45830337
18.66734804,2.116299133,4.95993576,10.69930069,11.9814323
18.67741004,2.462379456,4.640799408,8.199349365,9.738052256
18.68747204,3.240760803,4.57972641,5.910758514,8.149447269
18.69753504,3.977678375,4.575235748,4.06958725,7.301797573
18.70759704,3.912114716,4.125570831,2.850671997,6.360134202
18.71765904,3.248694305,3.214116211,2.098037109,5.02855023
18.72772204,2.126777344,2.196831665,2.20207077,3.768072042
18.73778404,0.963246918,1.267863464,3.169658661,3.547119735
18.74784604,0.14040802,0.557291107,4.278103638,4.31653316
18.75790904,-0.36973114,0.294737091,5.051545258,5.073625977
18.76797104,-0.610580292,0.261206818,5.185666351,5.228018057
18.77803304,-0.384101257,0.225281525,4.79153595,4.812182696
18.78809604,0.776734772,0.379610596,4.025279388,4.117073629
18.79815804,2.139201508,0.891995087,3.328179016,4.055689077
18.80822004,2.770289154,1.214723969,2.983595581,4.24875263
18.81828304,2.928360443,1.203946381,2.501448212,4.035099122
18.82834504,2.590812378,0.960253143,1.824855194,3.311267334
18.83840704,1.994602203,0.690813446,1.205293579,2.430718778
18.84847004,1.394200745,0.532293091,0.72778656,1.66036289
18.85853204,0.970431976,0.364342346,0.35341507,1.095164726
18.86859404,0.654588776,0.23052063,0.24339386,0.735436467
18.87865704,0.500858459,0.148341522,0.547860718,0.756978051
18.88871904,0.722697144,0.136067047,1.155746613,1.369874314
18.89878204,1.136885834,0.31704071,1.984123993,2.308629947
18.90884404,1.526076508,0.397722931,2.859204254,3.265293556
18.91890604,1.908531189,0.502954102,3.595373383,4.101483133
18.92896904,1.965861969,0.58618103,4.285139008,4.750856533
18.93903104,1.750908966,0.543819122,4.958139496,5.286262262
18.94909304,1.479673004,0.539328461,5.545218658,5.76452577
18.95915592,1.547631683,0.713865509,6.065087585,6.300004382
18.96921792,1.977088623,1.146166534,6.65081955,7.032494424
18.97927992,2.785108337,1.829495544,7.453300781,8.164286554
18.98934292,3.743565216,2.777324524,8.462651825,9.661484769
18.99940492,4.015250244,3.93262207,9.523795166,11.05850013
19.00946692,3.07849823,5.199437714,10.96080688,12.5160134
19.01952992,1.509011993,6.177803192,13.37768097,14.81231642
19.02959192,0.876726837,6.739435272,15.65130295,17.06317443
19.03965392,0.966989136,6.781946869,16.88563614,18.22236481
19.04971692,1.32684082,6.699618073,17.17977448,18.48756447
19.05977892,2.027384033,7.209008789,16.41396698,18.04157437
19.06984092,1.910028076,8.135132904,15.87942856,17.94393619
19.07990392,1.017733612,8.799750824,16.55691971,18.77772581
19.08996592,0.359402618,8.940308533,18.1627803,20.24709548
19.10002792,0.312849426,8.718020782,19.97176849,21.79388212
19.11009092,0.365390167,8.11342804,21.3134285,22.80840763
19.12015292,0.816851349,7.359745331,21.9331398,23.14942157
19.13021592,2.010618896,6.648574219,22.21620117,23.2767206
19.14027792,3.216211853,5.802084503,22.54716293,23.5028245
19.15033992,4.00641861,4.877906342,22.43040573,23.30168366
19.16040292,4.070485382,3.995341644,20.9365123,21.69951966
19.17046492,3.678300934,3.673061829,18.25394073,18.97966368
19.18052692,3.255579987,3.868704987,14.99925888,15.82856425
19.19058992,3.146606598,4.270020447,11.62752045,12.78019716
19.20065192,3.612737274,4.749174042,8.419391785,10.31952919
19.21071392,3.896547089,5.012476501,5.902825012,8.668987427
19.22077692,3.547622681,4.799768829,4.227658539,7.314130449
19.23083892,2.837200012,4.226610718,3.207829285,6.016985191
19.24090092,1.908830566,3.512296143,2.893033905,4.934521608
19.25096392,0.991388397,2.919977875,3.060236206,4.344440974
19.26102592,0.259859619,2.630779266,3.49388443,4.381296039
19.27108792,-0.136216736,2.456691284,3.826792145,4.549530216
19.28115092,-0.25970993,2.202220459,3.920197906,4.503906729
19.29121292,-0.210761719,1.984872437,3.806584167,4.298164971
19.30127492,0.333356781,1.941762085,3.462150421,3.983472389
19.31133792,0.832868042,2.037263489,2.887495422,3.630666814
19.32139992,0.877175903,1.977837067,2.290686493,3.15095567
19.33146192,0.775686951,1.902393951,1.664837952,2.64432948
19.34152492,0.530796204,1.830393677,1.098415833,2.199682469
19.35158692,0.309556274,1.717079315,0.575553131,1.837239197
19.36164892,0.148940277,1.463356934,0.16735199,1.480406502
19.37171192,-0.025596771,1.181044006,0.006137238,1.181337295
19.38177392,-0.18366806,1.052760773,0.157173157,1.0801586
19.39183592,-0.302670593,1.049467621,0.640218658,1.266045697
19.40189892,-0.357905731,1.076261902,1.378184052,1.784888645
19.41196092,-0.198786621,1.135538635,2.261347504,2.538238887
19.42202392,0.185015259,1.206640778,3.258124695,3.479308716
19.43208592,0.752485199,1.369352417,4.360282745,4.631784282
19.44214792,1.339863739,1.543440399,5.391937408,5.766318767
19.45221092,1.672472076,1.558858337,6.203250275,6.611166019
19.46227292,1.885928192,1.491498413,6.831942902,7.242702291
19.47233492,1.880539398,1.271156616,7.310497742,7.654779213
19.48239792,1.664837952,0.982407074,7.712262268,7.950836331
19.49245992,1.634900208,0.717607727,8.460256805,8.646606545
19.50252192,1.671873322,0.720601501,9.445358276,9.619210981
19.51258492,1.454525299,1.088835754,10.39648041,10.55405192
19.52264692,0.694405975,1.707948303,11.72736282,11.87140791
19.53270892,-0.089214478,2.545307007,13.13323929,13.37791169
19.54277192,-0.235310669,3.36051178,14.04738831,14.44567509
19.55283392,0.531394958,3.680546265,14.68596039,15.14946316
19.56289592,1.66034729,3.699706421,15.09865219,15.63374167
19.57295892,2.547402649,3.526815948,15.30582138,15.91212931
19.58302092,2.943329315,3.53130661,15.12140488,15.80475243
19.59308292,2.754871216,3.848646698,14.56381439,15.31359156
19.60314592,2.461181946,4.025279388,14.82262619,15.55540221
19.61320792,2.805016937,4.158202972,16.47264496,17.21937292
19.62326992,3.653153229,4.081562347,19.09908325,19.86906291
19.63333292,4.440066833,3.29494812,22.39208542,23.06461285
19.64339492,5.348527679,1.951491852,25.9424025,26.5598064
19.65345692,6.361920319,0.738713837,27.05893066,27.80657219
19.66351992,6.826404419,0.20941452,25.32299057,26.2278002
19.67358192,6.515950012,0.832119598,22.3949295,23.33844243
19.68364392,5.806724854,2.12258606,19.17886734,20.15074136
19.69370692,5.692063293,3.332070923,15.82134933,17.14110195
19.70376892,5.838608551,4.033063202,12.67324585,14.52467242
19.71383092,5.921985168,4.407434692,10.12180161,12.52781931
19.72389392,5.729485474,4.600383453,8.421936493,11.1767413
19.73395592,5.057981873,4.589306488,7.656128998,10.25968937
19.74401792,4.003574524,4.341272278,7.656128998,9.669103639
19.75408092,2.968626709,4.147575073,7.776179352,9.29968219
19.76414292,1.924697571,4.164190521,7.736960907,8.994748885
19.77420492,1.257984009,4.35384613,7.419022064,8.693698194
19.78426792,0.948128357,4.540058899,6.851252747,8.273496624
19.79432992,0.991388397,4.562512207,6.222410431,7.779316176
