"Time (s)","Acceleration x (m/s^2)","Acceleration y (m/s^2)","Acceleration z (m/s^2)","Absolute acceleration (m/s^2)"
1.198041660E-3,3.581302643E0,3.388653259E0,8.505612488E0,9.831283910E0
1.121904165E-2,3.523822174E0,3.398532715E0,8.081544342E0,9.448740989E0
2.124104166E-2,3.293151855E0,3.282074890E0,7.718698883E0,9.010836652E0
3.126204165E-2,3.196752319E0,3.143014069E0,7.681276703E0,8.893805407E0
4.128304165E-2,3.171903992E0,3.007246399E0,8.031248932E0,9.143602421E0
5.130504165E-2,3.097209320E0,2.872227173E0,8.847052460E0,9.803710100E0
6.132604164E-2,3.066822510E0,2.788401489E0,9.666897583E0,1.051805553E1
7.134804165E-2,3.031346283E0,2.708168335E0,9.952653351E0,1.075074624E1
8.136904167E-2,2.835104370E0,2.674188995E0,9.842781830E0,1.058628630E1
9.139004166E-2,2.707120514E0,2.786006470E0,9.962383118E0,1.069296081E1
1.014120417E-1,2.738704834E0,2.849324799E0,1.061577438E1,1.132756910E1
1.114330417E-1,2.831362152E0,2.799777832E0,1.056233551E1,1.128797143E1
1.214540417E-1,2.736309814E0,2.644550629E0,9.476493530E0,1.021200123E1
1.314760417E-1,2.426304474E0,2.223326569E0,8.599167938E0,9.207378762E0
1.414970417E-1,2.660417633E0,2.166444855E0,8.446335754E0,9.116572435E0
1.515180416E-1,3.058439941E0,2.379002838E0,8.291258240E0,9.151976430E0
1.615400416E-1,3.397335205E0,2.383493500E0,7.852370911E0,8.881590887E0
1.715610416E-1,3.795806580E0,1.994602203E0,7.591463470E0,8.718767296E0
1.815820417E-1,3.767066345E0,1.358275452E0,7.456144867E0,8.463438860E0
1.916040417E-1,3.486100616E0,8.663983154E-1,7.908204803E0,8.685807203E0
2.016250417E-1,3.373983765E0,5.779481506E-1,8.629105682E0,9.283278267E0
2.116460417E-1,3.485352173E0,6.245013428E-1,9.107810211E0,9.771892782E0
2.216680417E-1,3.343896332E0,7.571255493E-1,9.525591431E0,1.012382210E1
2.316890417E-1,3.205134888E0,8.611592102E-1,1.046788193E1,1.098139503E1
2.417100416E-1,3.268902283E0,1.081650696E0,1.098266144E1,1.150975858E1
2.517320417E-1,3.552562408E0,1.112187195E0,1.134326157E1,1.193847741E1
2.617530416E-1,3.500620422E0,1.215023346E0,1.088641159E1,1.149976445E1
2.717750416E-1,3.540437622E0,1.303489380E0,1.024289978E1,1.091562087E1
2.817960416E-1,3.468587036E0,1.215921478E0,1.018556900E1,1.082845219E1
2.918170417E-1,3.374732208E0,1.113235016E0,9.951605530E0,1.056705079E1
3.018390417E-1,3.281476135E0,9.066645813E-1,9.729766846E0,1.030817584E1
3.118600417E-1,3.309467926E0,8.026309204E-1,9.468859406E0,1.006260865E1
3.218810417E-1,3.501219177E0,7.186555481E-1,9.042994995E0,9.723721510E0
3.319030417E-1,3.601660309E0,5.927673340E-1,9.091494141E0,9.796866632E0
3.419240417E-1,3.430117035E0,5.685177612E-1,9.112749939E0,9.753518687E0
3.519493333E-1,3.377426605E0,6.292913818E-1,8.963360596E0,9.599210972E0
3.619713333E-1,3.488795013E0,5.550457764E-1,9.185199280E0,9.841120478E0
3.719923333E-1,3.690276031E0,5.927673340E-1,9.216633911E0,9.945644823E0
3.820133333E-1,3.543730774E0,6.491999817E-1,9.271869049E0,9.947212880E0
3.920353333E-1,3.168012085E0,6.372248840E-1,9.454489288E0,9.991482564E0
4.020563333E-1,2.865640869E0,7.554789734E-1,9.620194702E0,1.006631969E1
4.120783333E-1,2.690056000E0,8.669970703E-1,9.664801941E0,1.006958201E1
4.220993333E-1,2.717598724E0,1.005159760E0,9.011859741E0,9.466219148E0
4.321203333E-1,2.715503082E0,9.244775391E-1,6.404132538E0,7.017230883E0
4.421423333E-1,2.578388214E0,1.108295288E0,4.368665314E0,5.192460000E0
4.521633333E-1,2.117047577E0,1.158590698E0,7.035818939E0,7.438210201E0
4.621843333E-1,1.563648376E0,6.375242615E-1,9.828262024E0,9.972269944E0
4.722063333E-1,1.487007751E0,1.230740662E0,1.060799057E1,1.078217875E1
4.822273333E-1,1.412911835E0,1.939217377E0,1.022074585E1,1.049859655E1
4.922483333E-1,6.508465576E-1,1.495240631E0,1.013647110E1,1.026681022E1
5.022703333E-1,4.056564331E-2,1.103505249E0,9.697733459E0,9.760399769E0
5.122913333E-1,-2.791694641E-1,1.041983185E0,9.249415741E0,9.312108037E0
5.223123333E-1,-5.686674500E-1,8.526269531E-1,8.908424835E0,8.967183975E0
5.323343333E-1,-9.415420532E-1,3.986210632E-1,8.947643280E0,9.005871443E0
5.423553333E-1,-1.007255402E0,2.814147949E-2,8.866062927E0,8.923139986E0
5.523763333E-1,-8.656498718E-1,-1.857637024E-1,9.153315582E0,9.196034145E0
5.623983333E-1,-6.396199036E-1,-3.448828125E-1,9.904752960E0,9.931373972E0
5.724193333E-1,-6.503974915E-1,-5.773493958E-1,1.034169434E1,1.037819787E1
5.824413333E-1,-5.014572144E-1,-9.012757874E-1,1.037103333E1,1.042219217E1
5.924623333E-1,-2.640509033E-1,-1.082399139E0,1.014679962E1,1.020778396E1
6.024833333E-1,-2.821632385E-1,-1.603465576E0,1.044138702E1,1.056755795E1
6.125053333E-1,-1.017883301E-1,-1.907483368E0,1.112935638E1,1.129209578E1
6.225263333E-1,4.014651489E-1,-2.231709137E0,1.086979614E1,1.110379071E1
6.325473333E-1,1.397344208E0,-3.322640533E0,1.054497162E1,1.114400904E1
6.425693333E-1,2.198627930E0,-4.536166992E0,1.043539948E1,1.158914742E1
6.525903333E-1,2.983445892E0,-5.097499695E0,1.028136978E1,1.185715046E1
6.626113333E-1,3.661835175E0,-6.367009735E0,1.002465363E1,1.242745067E1
6.726333333E-1,4.648583221E0,-7.599846039E0,1.027598099E1,1.360010188E1
6.826543333E-1,4.816983032E0,-6.527326355E0,1.059856018E1,1.334686453E1
6.926763333E-1,5.307662659E0,-5.914650421E0,1.104852448E1,1.360971218E1
7.026973333E-1,5.976920929E0,-4.912634125E0,1.124955643E1,1.365320760E1
7.127183333E-1,5.302273865E0,-2.799029388E0,1.181178726E1,1.324639543E1
7.227403333E-1,5.513334961E0,-1.549877014E0,1.150567383E1,1.285221815E1
7.327613333E-1,5.098547516E0,5.513035583E-1,1.154100037E1,1.262908595E1
7.427823333E-1,4.557422791E0,3.003354492E0,1.190773773E1,1.309902510E1
7.528043333E-1,4.168531494E0,5.406307526E0,1.160057648E1,1.346024481E1
7.628253333E-1,3.623065796E0,6.529421997E0,1.083342178E1,1.315762079E1
7.728463333E-1,4.110003204E0,5.677244110E0,9.202712860E0,1.156776344E1
7.828683333E-1,4.168082428E0,5.215903473E0,8.199648743E0,1.057415716E1
7.928893333E-1,4.499193878E0,5.338797913E0,8.611143036E0,1.108590515E1
8.029103333E-1,4.597838745E0,5.879174194E0,1.014724869E1,1.259648627E1
8.129323333E-1,4.671784973E0,6.210435333E0,1.145253433E1,1.384036215E1
8.229533333E-1,4.303251343E0,5.999523926E0,1.133532806E1,1.352782029E1
8.329753333E-1,4.107458496E0,5.313201141E0,1.092937225E1,1.282780182E1
8.429963333E-1,4.111799469E0,4.700375519E0,1.069346283E1,1.238347981E1
8.530173333E-1,3.847449188E0,4.378993835E0,1.054437286E1,1.204832982E1
8.630393333E-1,3.603007507E0,3.996688843E0,1.044333298E1,1.174812276E1
8.730603333E-1,2.975512390E0,3.755839691E0,9.684411163E0,1.080499076E1
8.830813333E-1,2.991529083E0,3.290158081E0,9.034911804E0,1.006995619E1
8.931033333E-1,2.989583130E0,2.433190155E0,8.549770660E0,9.378518005E0
9.031243333E-1,3.333418121E0,1.426383820E0,8.538993073E0,9.276887941E0
9.131453333E-1,3.656147003E0,8.750802612E-1,8.703201599E0,9.480448009E0
9.231673333E-1,4.193080444E0,2.353106689E-1,8.924142151E0,9.862941136E0
9.331883333E-1,4.517306213E0,-5.340893555E-1,8.491242371E0,9.632886580E0
9.432093333E-1,4.675976257E0,-1.033450928E0,7.647896118E0,9.023474376E0
9.532313333E-1,5.246889038E0,-1.836081848E0,6.086942139E0,8.243294592E0
9.632523333E-1,5.490731964E0,-2.237546997E0,5.031486969E0,7.776285436E0
9.732743333E-1,5.408552856E0,-2.019899597E0,4.678071899E0,7.430800433E0
9.832953333E-1,5.712720337E0,-1.574875031E0,4.660857697E0,7.539164375E0
9.933163333E-1,6.345304871E0,-1.363514557E0,4.493505707E0,7.893900138E0
1.003338333E0,6.611002350E0,-9.984237671E-1,4.024680634E0,7.803861627E0
1.013359333E0,6.558910675E0,-5.923182678E-1,3.379522247E0,7.402115967E0
1.023380333E0,6.659052429E0,-2.787203979E-1,3.185675354E0,7.387096302E0
1.033402333E0,6.997947693E0,2.415975952E-1,3.311413879E0,7.745650598E0
1.043423333E0,7.199877777E0,9.830058289E-1,3.893703003E0,8.244116905E0
1.053444333E0,7.298672333E0,1.630259857E0,4.193978577E0,8.574253397E0
1.063466333E0,7.897277527E0,1.516346741E0,4.389771423E0,9.161680682E0
1.073487333E0,8.662336578E0,6.539900208E-1,4.986730042E0,1.001654903E1
1.083508333E0,9.781409454E0,-5.174739075E-1,5.531746674E0,1.124917648E1
1.093530333E0,1.137694153E1,-1.724863129E0,5.390590210E0,1.270702224E1
1.103551333E0,1.314476532E1,-3.694916382E0,5.793701935E0,1.483254006E1
1.113573333E0,1.311961761E1,-4.290527802E0,5.225184174E0,1.475925285E1
1.123594333E0,1.217388428E1,-3.321443024E0,4.950205994E0,1.355507217E1
1.133615333E0,1.140568176E1,-2.196083221E0,4.525389404E0,1.246561299E1
1.143637333E0,1.058119629E1,-1.030157776E0,4.466561737E0,1.153139687E1
1.153658333E0,9.661359100E0,4.668791199E-1,4.879552917E0,1.083373770E1
1.163679333E0,8.663683777E0,2.289788361E0,5.246889038E0,1.038423767E1
1.173701333E0,7.638016663E0,3.414998474E0,5.710325317E0,1.012962627E1
1.183722333E0,6.709198151E0,4.232298889E0,6.528074799E0,1.027333706E1
1.193743333E0,6.180347900E0,3.406915283E0,6.967261505E0,9.916980629E0
1.203765333E0,6.552773438E0,2.378553772E-1,7.132517853E0,9.688561597E0
1.213786333E0,7.382647705E0,-3.552113342E0,6.754703522E0,1.061823978E1
1.223807333E0,8.675958252E0,-4.591252441E0,2.806214447E0,1.020914737E1
1.233829333E0,8.717422028E0,-3.684138794E0,1.657203827E0,9.607947230E0
1.243850333E0,7.680677948E0,-3.989653473E0,3.643273773E0,9.390611927E0
1.253872333E0,6.698270874E0,-3.795656891E0,5.929469604E0,9.717636221E0
1.263893333E0,5.662724304E0,-6.128854980E0,8.351732483E0,1.180596228E1
1.273914333E0,6.899452515E0,-8.481961670E0,8.324189758E0,1.374184318E1
1.283936333E0,8.557704163E0,-8.395890656E0,7.084916840E0,1.392556380E1
1.293957333E0,8.850195923E0,-8.439450073E0,5.735622711E0,1.350731851E1
1.303978333E0,8.666827240E0,-8.856782227E0,4.646637268E0,1.323433881E1
1.314000333E0,8.699309692E0,-8.688831482E0,3.937412109E0,1.291034453E1
1.324021333E0,8.149053955E0,-8.467591553E0,4.155658264E0,1.246501836E1
1.334042333E0,7.622449036E0,-7.958500214E0,3.935017090E0,1.170144497E1
1.344064333E0,7.347321167E0,-6.681356049E0,4.010909271E0,1.071032400E1
1.354081167E0,6.820566559E0,-5.326972504E0,4.344116364E0,9.683393580E0
1.364103167E0,6.594536591E0,-4.951553192E0,3.935915222E0,9.137681352E0
1.374124167E0,6.755601654E0,-3.944447479E0,4.778513031E0,9.166842772E0
1.384145167E0,6.062393188E0,-2.902015228E0,5.316494293E0,8.569679990E0
1.394167167E0,5.937852173E0,-2.418071594E0,4.113146667E0,7.617291787E0
1.404188167E0,6.202801208E0,-2.332898712E0,2.916684723E0,7.240456409E0
1.414209167E0,6.267915802E0,-2.208657074E0,2.347268829E0,7.048021391E0
1.424231167E0,6.403982849E0,-1.899549866E0,3.076552277E0,7.354213754E0
1.434252167E0,6.099066925E0,-2.694247284E0,3.453917542E0,7.509136579E0
1.444273167E0,5.953419800E0,-3.808530121E0,2.808759155E0,7.605079683E0
1.454295167E0,4.802163849E0,-3.832779694E0,3.126697998E0,6.893998708E0
1.464316167E0,4.630919952E0,-3.597918091E0,2.633922729E0,6.428684402E0
1.474338167E0,5.869294739E0,-3.653751984E0,-5.378315735E-1,6.934535824E0
1.484359167E0,5.630092163E0,-4.895569611E0,-4.047583008E-1,7.471838386E0
1.494380167E0,5.758974152E0,-5.118605804E0,-2.017803955E-1,7.707569266E0
1.504402167E0,6.271658020E0,-4.621489563E0,-5.878276062E-1,7.812643688E0
1.514423167E0,6.228697357E0,-4.416416016E0,1.517843628E-1,7.637043910E0
1.524444167E0,6.226452026E0,-4.540058899E0,5.116360474E-1,7.722862882E0
1.534466167E0,5.859714661E0,-4.255350952E0,-3.592529297E-3,7.241842344E0
1.544487167E0,5.427563324E0,-4.453239441E0,-4.456233215E-1,7.034796749E0
1.554509167E0,4.883145447E0,-6.573879547E0,1.364113312E0,8.301915856E0
1.564530167E0,4.311484222E0,-9.532626801E0,2.623594208E0,1.078624664E1
1.574551167E0,3.733685760E0,-1.008363098E1,3.397634583E0,1.127669916E1
1.584573167E0,3.098107452E0,-1.000773880E1,4.402644653E0,1.136381915E1
1.594594167E0,1.440753937E0,-9.807455292E0,6.182443542E0,1.168266063E1
1.604615167E0,6.192622375E-1,-9.442963257E0,6.896907806E0,1.170984108E1
1.614637167E0,7.580236816E-1,-9.532776489E0,6.366560669E0,1.148832112E1
1.624658167E0,1.244512024E0,-8.907676392E0,1.425844940E1,1.685819944E1
1.634680167E0,2.417622528E0,-9.410780182E0,8.487500153E0,1.290136974E1
1.644701167E0,2.408491516E0,-9.064999237E0,8.549920349E0,1.269157912E1
1.654722167E0,2.465822296E0,-9.420360260E0,9.662406921E0,1.371807474E1
1.664744167E0,3.205434265E0,-1.040037231E1,1.153860535E1,1.586133558E1
1.674765167E0,4.467609558E0,-1.133083740E1,1.147214355E1,1.673193023E1
1.684787167E0,5.358257446E0,-1.207613754E1,1.170969955E1,1.765392547E1
1.694808167E0,5.389392700E0,-1.213601303E1,1.314521439E1,1.868488767E1
1.704829167E0,5.213807831E0,-1.154818542E1,1.485510864E1,1.952482091E1
1.714851167E0,4.747826843E0,-9.593849487E0,1.643058243E1,1.960989155E1
1.724872167E0,4.043990479E0,-7.437134399E0,1.497545837E1,1.720259226E1
1.734893167E0,2.913391571E0,-5.378914490E0,1.148816025E1,1.301531396E1
1.744915167E0,2.052531738E0,-4.066443787E0,1.027343628E1,1.123798668E1
1.754936167E0,2.190095673E0,-3.557502136E0,1.030217651E1,1.111697717E1
1.764958167E0,2.412084045E0,-3.503913574E0,1.024858795E1,1.109635592E1
1.774979167E0,2.241588593E0,-3.657943268E0,9.507030029E0,1.043019119E1
1.785000167E0,2.295027466E0,-3.953279114E0,8.267008667E0,9.446639568E0
1.795022167E0,2.000140686E0,-3.629951477E0,8.193062439E0,9.181687351E0
1.805043167E0,2.204765167E0,-5.076543274E0,6.568939819E0,8.589717772E0
1.815065167E0,3.477718048E0,-6.223607941E0,3.625161438E0,7.998100654E0
1.825086167E0,4.544998627E0,-5.814808044E0,1.619931335E0,7.556003086E0
1.835107167E0,4.701273651E0,-5.122348022E0,7.876620483E-1,6.997201920E0
1.845129167E0,5.000800781E0,-4.096531219E0,7.186555481E-1,6.504309516E0
1.855150167E0,4.682562561E0,-3.215912476E0,6.144721985E-1,5.713673186E0
1.865172167E0,4.695735168E0,-1.268462219E0,1.860331421E0,5.207663408E0
1.875193167E0,5.091063080E0,5.665718079E-1,3.313958588E0,6.101003886E0
1.885214167E0,6.147416382E0,1.931882629E0,4.013903046E0,7.591726834E0
1.895236167E0,7.471263428E0,3.517684937E0,5.471272430E0,9.905993465E0
1.905257167E0,8.419541473E0,4.774621124E0,7.551945648E0,1.227670838E1
1.915279167E0,8.310268707E0,5.559888153E0,1.354458389E1,1.683534006E1
1.925300167E0,8.511450348E0,4.408781891E0,1.361823074E1,1.665347872E1
1.935321167E0,6.942562866E0,3.171454926E0,7.979756012E0,1.104236440E1
1.945343167E0,6.077511749E0,3.122656403E0,7.570057983E0,1.019769140E1
1.955364167E0,5.877377930E0,2.041604462E0,6.954687653E0,9.331634393E0
1.965386167E0,6.278992767E0,1.247356110E0,6.646777954E0,9.228288282E0
1.975407167E0,6.758595428E0,9.963281250E-1,8.677455139E0,1.104398069E1
1.985428167E0,7.033423920E0,1.032403107E0,9.474846954E0,1.184515230E1
1.995450167E0,8.050558777E0,4.936734009E-1,8.282576294E0,1.156098093E1
2.005471167E0,8.954828339E0,-1.326242065E-1,8.484955444E0,1.233697729E1
2.015493167E0,9.528585205E0,-7.363188171E-1,8.770711212E0,1.297156415E1
2.025514167E0,9.487271118E0,-1.355281677E0,8.713230743E0,1.295243188E1
2.035535167E0,9.399403839E0,-1.441951447E0,8.706644440E0,1.289316384E1
2.045557167E0,8.748856659E0,-1.760339355E0,8.976383514E0,1.265767548E1
2.055578167E0,7.577692108E0,-2.603835297E0,9.404942322E0,1.235533553E1
2.065600167E0,6.439758453E0,-3.377875671E0,1.045800247E1,1.273775289E1
2.075621167E0,5.655389557E0,-3.239114227E0,1.143367355E1,1.316070602E1
2.085642167E0,5.514981537E0,-2.315085754E0,1.105376358E1,1.256822711E1
2.095664167E0,6.155798950E0,-1.638941803E0,9.269474030E0,1.124736146E1
2.105685167E0,7.243137817E0,-1.322649536E0,7.485633545E0,1.049986461E1
2.115707167E0,8.454269257E0,-8.952882385E-1,6.672374725E0,1.080725655E1
2.125728167E0,9.523196411E0,-4.481680298E-1,6.275100861E0,1.141354525E1
2.135750167E0,1.028271698E1,-6.795867920E-2,5.933810577E0,1.187219419E1
2.145771167E0,1.087638245E1,1.389111328E-1,5.805377655E0,1.232953370E1
2.155792167E0,1.136990616E1,1.749861145E-1,5.729485474E0,1.273312177E1
2.165814167E0,1.177780792E1,-1.525328064E-1,5.772595825E0,1.311727442E1
2.175835167E0,1.217672836E1,-6.248007202E-1,5.882467346E0,1.353759623E1
2.185857167E0,1.241548187E1,-1.083297272E0,6.123615875E0,1.388583431E1
2.195878167E0,1.258253448E1,-1.341061249E0,6.208938446E0,1.409501813E1
2.205900167E0,1.261292130E1,-1.402882690E0,6.074068909E0,1.406940569E1
2.215921167E0,1.229692841E1,-1.419647827E0,5.882018280E0,1.370503510E1
2.225942167E0,1.161374908E1,-1.283281403E0,5.648503876E0,1.297811909E1
2.235964167E0,1.069795349E1,-9.475296021E-1,5.204377441E0,1.193438586E1
2.245985167E0,9.770033112E0,-5.911207581E-1,4.668940887E0,1.084444465E1
2.256007167E0,8.840017090E0,-1.929487610E-1,4.041595459E0,9.722017549E0
2.266028167E0,7.936046906E0,1.615141296E-1,3.482208710E0,8.667912367E0
2.276050167E0,7.206164703E0,4.808001709E-1,3.006348267E0,7.822921988E0
2.286071167E0,6.692433014E0,7.470964050E-1,2.519261169E0,7.189818463E0
2.296092167E0,6.376739502E0,1.051114197E0,2.110461273E0,6.798653875E0
2.306114167E0,6.227799225E0,1.356179810E0,1.839375000E0,6.633853123E0
2.316135167E0,6.306834869E0,1.622026978E0,1.614542542E0,6.709238795E0
2.326157167E0,6.566694489E0,1.715881805E0,1.392105103E0,6.928469058E0
2.336178167E0,6.977590027E0,1.755399628E0,1.300345917E0,7.311572330E0
2.346199917E0,7.472760315E0,1.735191650E0,1.618733826E0,7.840493351E0
2.356220917E0,7.996371460E0,1.607357483E0,2.355052643E0,8.489512798E0
2.366241917E0,8.420289917E0,1.439556427E0,2.952310638E0,9.038237831E0
2.376263917E0,8.746611328E0,1.247356110E0,3.264411621E0,9.418890074E0
2.386284917E0,8.937314758E0,1.096469879E0,3.423081665E0,9.633033238E0
2.396306917E0,8.956923981E0,9.743238831E-1,3.570824432E0,9.691572698E0
2.406327917E0,8.856931915E0,9.304650879E-1,3.686533813E0,9.638544485E0
2.416349917E0,8.847651215E0,8.857081604E-1,3.849993896E0,9.689575015E0
2.426370917E0,8.983718262E0,8.146060181E-1,4.194277954E0,9.948002027E0
2.436391917E0,9.166637878E0,7.917036438E-1,4.727618866E0,1.034429431E1
2.446413917E0,9.311985626E0,6.387217712E-1,5.010081482E0,1.059348660E1
2.456434917E0,9.303153992E0,3.516188049E-1,5.031486969E0,1.058244637E1
2.466456917E0,9.085057526E0,1.695973206E-1,4.952900391E0,1.034882872E1
2.476477917E0,8.902586975E0,5.209167480E-2,4.783901825E0,1.010665548E1
2.486499917E0,8.667126617E0,-1.278341675E-1,4.833748169E0,9.924744165E0
2.496520917E0,8.258177032E0,-2.447410583E-1,5.078638916E0,9.697935828E0
2.506542917E0,7.835306396E0,-2.029779053E-1,5.008135529E0,9.301325058E0
2.516563917E0,7.536527710E0,-4.385879517E-2,4.832400970E0,8.952836012E0
2.526584917E0,7.332052917E0,1.118174744E-1,4.730762329E0,8.726489291E0
2.536606917E0,7.169640656E0,2.887495422E-1,4.590204620E0,8.518045661E0
2.546627917E0,7.021299133E0,4.083508301E-1,4.428840179E0,8.311438940E0
2.556649917E0,6.839427338E0,5.312452698E-1,4.398603058E0,8.149091772E0
2.566670917E0,6.795718231E0,7.652087402E-1,4.603676605E0,8.243856439E0
2.576692917E0,6.997648315E0,9.500743103E-1,4.878954163E0,8.583351144E0
2.586713917E0,7.352859650E0,1.054557037E0,4.987328796E0,8.947071258E0
2.596735917E0,7.708220673E0,1.110091553E0,5.207969971E0,9.368666949E0
2.606756917E0,7.912845154E0,1.002016296E0,5.249433746E0,9.548492538E0
2.616778917E0,8.023914185E0,8.713380432E-1,4.961732025E0,9.474239469E0
2.626799917E0,8.229586487E0,8.749305725E-1,4.743635559E0,9.539060518E0
2.636820917E0,8.429720306E0,9.355545044E-1,4.782554626E0,9.736954115E0
2.646842917E0,8.446934509E0,1.066232758E0,4.819677429E0,9.783498629E0
2.656863917E0,8.292156372E0,1.285676422E0,4.520449677E0,9.531384288E0
2.666885917E0,8.128247223E0,1.479523315E0,4.454886017E0,9.386341224E0
2.676906917E0,7.880961456E0,1.600471802E0,4.548291779E0,9.238940500E0
2.686928917E0,7.579638062E0,1.731898499E0,4.644990692E0,9.056838526E0
2.696949917E0,7.349267120E0,1.626367950E0,4.984335022E0,9.027756949E0
2.706971917E0,7.250622253E0,1.488354950E0,5.293442230E0,9.099849129E0
2.716992917E0,7.259603577E0,1.235680389E0,5.702840881E0,9.314029431E0
2.727014917E0,7.324418793E0,9.903405762E-1,6.252497864E0,9.680992441E0
2.737035917E0,7.401807861E0,8.017327881E-1,6.604116669E0,9.952079785E0
2.747056917E0,7.507937164E0,7.189549255E-1,6.817423096E0,1.016677305E1
2.757078917E0,7.694598999E0,7.180567932E-1,6.828799438E0,1.031285417E1
2.767099917E0,8.027357025E0,8.449928284E-1,6.596632233E0,1.042439593E1
2.777121917E0,8.374185791E0,1.054706726E0,5.989943848E0,1.034982228E1
2.787142917E0,8.734486542E0,1.297202454E0,5.688620453E0,1.050401790E1
2.797164917E0,9.032067719E0,1.600172424E0,5.665269012E0,1.078119066E1
2.807185917E0,9.387129364E0,1.903441772E0,5.767207031E0,1.118042777E1
2.817207917E0,9.826016693E0,2.228565674E0,6.011349335E0,1.173257985E1
2.827228917E0,1.009874954E1,2.634521484E0,6.208938446E0,1.214398462E1
2.837250917E0,1.011072464E1,3.152444458E0,6.370751953E0,1.235925318E1
2.847271917E0,9.953701172E0,3.686533813E0,6.576124878E0,1.248647737E1
2.857293917E0,9.782457275E0,4.054468689E0,6.884333954E0,1.263048854E1
2.867314917E0,9.728120270E0,3.809577942E0,7.122039642E0,1.264407595E1
2.877335917E0,1.008797195E1,2.753074951E0,7.115004272E0,1.264792021E1
2.887357917E0,1.080258591E1,1.966460724E0,7.429200897E0,1.325729445E1
2.897378917E0,1.162767014E1,1.670376434E0,7.197931824E0,1.377690432E1
2.907400917E0,1.236413864E1,1.344953156E0,6.336323547E0,1.395814527E1
2.917421917E0,1.327230011E1,1.045426025E0,5.387297058E0,1.436209718E1
2.927443917E0,1.435170547E1,8.372090149E-1,4.882696381E0,1.518265764E1
2.937464917E0,1.519265671E1,6.628216553E-1,5.243895264E0,1.608585055E1
2.947486917E0,1.523352173E1,5.056484985E-1,5.430407410E0,1.618039521E1
2.957507917E0,1.390488464E1,3.498225403E-1,4.874164124E0,1.473857757E1
2.967529917E0,1.142499161E1,3.712280273E-1,3.485950928E0,1.195073627E1
2.977550917E0,9.244925079E0,3.510200500E-1,2.280208282E0,9.528441877E0
2.987571917E0,7.425159302E0,1.947450256E-1,1.558259583E0,7.589406380E0
2.997593917E0,6.065686340E0,-1.437011719E-2,1.182690582E0,6.179928340E0
3.007614917E0,5.026397552E0,-2.707868958E-1,1.062041473E0,5.144504834E0
3.017636917E0,4.341272278E0,-4.968168640E-1,1.110839996E0,4.508595955E0
3.027657917E0,4.083059235E0,-6.595285034E-1,1.079405365E0,4.274513598E0
3.037679917E0,4.279899902E0,-8.008346558E-1,9.632469177E-1,4.459453323E0
3.047700917E0,4.844376068E0,-9.389973450E-1,8.396040344E-1,5.005460063E0
3.057722917E0,5.628744965E0,-1.051114197E0,6.712042236E-1,5.765251603E0
3.067743917E0,6.552324371E0,-1.090931396E0,6.239025879E-1,6.671756921E0
3.077765917E0,7.567513275E0,-1.249002686E0,6.301895142E-1,7.695739321E0
3.087786917E0,8.529562683E0,-1.425186310E0,7.060816956E-1,8.676586134E0
3.097808917E0,9.477092285E0,-1.545386353E0,1.277593231E0,9.686885032E0
3.107829917E0,1.058972855E1,-1.765877838E0,2.360441437E0,1.099237731E1
3.117850917E0,1.168694687E1,-2.073039093E0,3.930077362E0,1.250310866E1
3.127872917E0,1.242072098E1,-2.330803070E0,5.165458374E0,1.365243249E1
3.137893917E0,1.252430557E1,-2.453098755E0,5.458099823E0,1.388044586E1
3.147915917E0,1.184232376E1,-2.712509308E0,4.847519531E0,1.308039695E1
3.157936917E0,1.048509613E1,-2.987936554E0,3.963607635E0,1.160065477E1
3.167958917E0,9.001531219E0,-2.953358459E0,3.633693695E0,1.014660635E1
3.177979917E0,7.826175385E0,-2.611619110E0,3.252436523E0,8.868366189E0
3.188001917E0,7.118746490E0,-2.345622253E0,3.173999634E0,8.139580396E0
3.198022917E0,6.687792664E0,-2.154170380E0,3.332819366E0,7.776548442E0
3.208044917E0,6.524033203E0,-2.102677460E0,3.723806305E0,7.800704784E0
3.218065917E0,6.393055573E0,-1.890269165E0,4.007765808E0,7.778590093E0
3.228086917E0,6.288872223E0,-1.453926544E0,4.187242584E0,7.693946756E0
3.238108917E0,6.342460785E0,-1.094823303E0,4.513114929E0,7.860893921E0
3.248129917E0,6.473737793E0,-7.870632935E-1,4.690496063E0,8.033025766E0
3.258151917E0,6.516399078E0,-4.637356567E-1,4.830305328E0,8.124675826E0
3.268172917E0,6.461613007E0,-8.202941895E-2,5.217400360E0,8.305446285E0
3.278194917E0,6.581813049E0,3.412902832E-1,5.341791687E0,8.483600680E0
3.288215917E0,6.740183716E0,6.203100586E-1,5.489684143E0,8.715015381E0
3.298237917E0,6.964417419E0,6.071374512E-1,5.850134583E0,9.115689799E0
3.308258917E0,7.119195557E0,3.879931641E-1,5.905220032E0,9.257705315E0
3.318280917E0,6.768923950E0,-2.728825378E-1,5.999673615E0,9.049247472E0
3.328301917E0,6.245612183E0,-1.080303497E0,6.437064056E0,9.033854152E0
3.338322917E0,6.226152649E0,-1.207239532E0,6.560856628E0,9.125088701E0
3.348345417E0,6.430926819E0,-1.086440735E0,6.336922302E0,9.093610806E0
3.358366417E0,6.712491302E0,-1.014141083E0,6.208639069E0,9.199631553E0
3.368388417E0,6.982978821E0,-8.641529846E-1,6.471342773E0,9.559656421E0
3.378409417E0,7.225324860E0,-7.429051208E-1,6.519991608E0,9.760508076E0
3.388431417E0,7.397017822E0,-5.321434021E-1,6.463558960E0,9.837512068E0
3.398452417E0,7.575746155E0,-2.401007080E-1,6.571484528E0,1.003164927E1
3.408474417E0,7.769143982E0,1.007405090E-1,6.629414062E0,1.021366133E1
3.418495417E0,7.984396362E0,4.162843323E-1,6.601422272E0,1.036834866E1
3.428517417E0,8.224347382E0,6.035449219E-1,6.528374176E0,1.051778616E1
3.438538417E0,8.446335754E0,4.782554626E-1,6.446494446E0,1.063609922E1
3.448559417E0,8.800349579E0,-4.631369019E-1,6.437662811E0,1.091348482E1
3.458581417E0,9.497599640E0,-1.802252197E0,6.950496368E0,1.190638113E1
3.468602417E0,1.000803818E1,-2.605781250E0,6.904841309E0,1.243494100E1
3.478624417E0,1.007464966E1,-3.005001068E0,6.556815033E0,1.239033577E1
3.488645417E0,9.896819458E0,-3.323987732E0,6.271358643E0,1.217891083E1
3.498667417E0,9.744586029E0,-3.390748901E0,6.534212036E0,1.221270084E1
3.508688417E0,9.677076416E0,-2.393522644E0,7.278464355E0,1.234304671E1
3.518710417E0,9.863588562E0,-8.057743835E-1,7.877817993E0,1.264909752E1
3.528731417E0,1.024200165E1,1.471440125E-1,7.894882507E0,1.293249469E1
3.538752417E0,1.083581680E1,3.932322693E-1,7.573500824E0,1.322601498E1
3.548774417E0,1.176388687E1,2.185455322E-1,7.324269104E0,1.385935476E1
3.558795417E0,1.277608200E1,-2.019300842E-1,6.928492126E0,1.453523478E1
3.568817417E0,1.353530319E1,-6.465055847E-1,6.390510864E0,1.498202360E1
3.578838417E0,1.388991577E1,-1.017284546E0,6.012546844E0,1.516955331E1
3.588860417E0,1.382734589E1,-1.279090118E0,5.658383331E0,1.499496141E1
3.598881417E0,1.335807175E1,-1.308878174E0,5.128036194E0,1.436829837E1
3.608902417E0,1.253747818E1,-1.207688599E0,4.054768066E0,1.323208279E1
3.618924417E0,1.167497177E1,-1.086590424E0,3.082090759E0,1.212373408E1
3.628945417E0,1.084419937E1,-9.761201477E-1,2.356848907E0,1.114020679E1
3.638967417E0,9.866732025E0,-9.367520142E-1,1.928439789E0,1.009696911E1
3.648988417E0,8.822653198E0,-8.668473816E-1,1.702110443E0,9.027060086E0
3.659010417E0,7.971373444E0,-6.131250000E-1,1.638941803E0,8.161179270E0
3.669031417E0,7.306905212E0,-1.445993042E-1,1.537003784E0,7.468209516E0
3.679053417E0,6.776558075E0,4.496649170E-1,1.344204712E0,6.923209096E0
3.689074417E0,6.277495880E0,1.038690033E0,1.176553345E0,6.470711652E0
3.699095417E0,5.779331818E0,1.619781647E0,9.247769165E-1,6.072856098E0
3.709117417E0,5.365292816E0,2.153122559E0,4.643344116E-1,5.799819842E0
3.719138417E0,5.112917633E0,2.547851715E0,-1.451980591E-2,5.712590123E0
3.729160417E0,5.142256622E0,2.808759155E0,-3.436853027E-1,5.869416560E0
3.739181417E0,5.471721497E0,2.901117096E0,-5.101391602E-1,6.214214231E0
3.749203417E0,6.355932770E0,2.780318298E0,-6.914122009E-1,6.971807660E0
3.759224417E0,7.627688141E0,2.336491241E0,-9.623487854E-1,8.035355181E0
3.769245417E0,8.922944641E0,1.724563751E0,-1.202449493E0,9.167275821E0
3.779267417E0,1.016805542E1,1.193019104E0,-1.139430542E0,1.030101682E1
3.789288417E0,1.123668320E1,8.931925964E-1,-7.839198303E-1,1.129935275E1
3.799310417E0,1.195743439E1,8.047265625E-1,-5.222639465E-1,1.199585685E1
3.809331417E0,1.236129456E1,8.078700256E-1,-2.016307068E-1,1.238930636E1
3.819353417E0,1.230126938E1,8.104147339E-1,2.254312134E-1,1.232999674E1
3.829374417E0,1.174427765E1,7.948471069E-1,1.397344208E0,1.185379307E1
3.839395417E0,1.098640366E1,4.369413757E-1,4.103716278E0,1.173594778E1
3.849417417E0,1.010069550E1,3.321592712E-1,3.626508636E0,1.073712923E1
3.859438417E0,8.975186005E0,4.927752686E-1,3.846700745E0,9.777213197E0
3.869460417E0,8.111033020E0,7.197033691E-1,3.970643005E0,9.059405911E0
3.879481417E0,7.565267944E0,8.574169922E-1,3.920796661E0,8.563941232E0
3.889503417E0,7.315587158E0,8.674461365E-1,4.126768341E0,8.443962056E0
3.899524417E0,7.251819763E0,9.683363342E-1,4.469555511E0,8.573417732E0
3.909545417E0,7.297025757E0,9.484277344E-1,4.784799957E0,8.777266698E0
3.919567417E0,7.487729187E0,8.749305725E-1,4.923711090E0,9.004139203E0
3.929588417E0,7.704328766E0,7.511380005E-1,4.794679413E0,9.105484100E0
3.939610417E0,7.831863556E0,6.484515381E-1,4.389771423E0,9.001592598E0
3.949631417E0,7.823630676E0,6.535409546E-1,4.076023865E0,8.845919019E0
3.959653417E0,7.659721527E0,8.068222046E-1,3.990850983E0,8.674628955E0
3.969674417E0,7.565417633E0,9.005273438E-1,3.990102539E0,8.600430904E0
3.979695417E0,7.503446503E0,9.214837646E-1,3.888763275E0,8.501371746E0
3.989717417E0,7.401658173E0,8.984317017E-1,3.764371948E0,8.352378068E0
3.999738417E0,7.316485291E0,8.358618164E-1,3.720962219E0,8.250768559E0
4.009760417E0,7.311994629E0,7.940986633E-1,3.744163971E0,8.253158303E0
4.019781417E0,7.459587708E0,7.011419678E-1,3.805087280E0,8.403317085E0
4.029803417E0,7.746690674E0,4.661306763E-1,3.861669617E0,8.668390072E0
4.039824417E0,8.047714691E0,1.890568542E-1,3.878883820E0,8.935725708E0
4.049845417E0,8.364456024E0,-5.523513794E-2,3.925886078E0,9.240116720E0
4.059867417E0,8.808133392E0,-2.480342102E-1,3.973936157E0,9.666276605E0
4.069888417E0,9.341174927E0,-2.001338196E-1,3.952380981E0,1.014489615E1
4.079910417E0,9.819280701E0,2.104623413E-1,3.810027008E0,1.053465109E1
4.089931417E0,1.026894562E1,8.699908447E-1,3.726800079E0,1.095888530E1
4.099952417E0,1.076471466E1,1.511556702E0,3.695814514E0,1.148141674E1
4.109974417E0,1.118369339E1,2.041005707E0,3.544329529E0,1.190810539E1
4.119995417E0,1.144864243E1,2.499951324E0,3.360362091E0,1.219070151E1
4.130017417E0,1.179442337E1,2.725831604E0,3.416195984E0,1.257811495E1
4.140038417E0,1.231249603E1,2.568209381E0,3.758983154E0,1.312719362E1
4.150060417E0,1.296648605E1,2.191592560E0,4.528383179E0,1.390823830E1
4.160081417E0,1.355341553E1,1.670226746E0,5.738317108E0,1.481259643E1
4.170102417E0,1.407792480E1,1.138831787E0,6.540948029E0,1.556498974E1
4.180124417E0,1.495075974E1,9.225315857E-1,6.324647827E0,1.625968792E1
4.190145417E0,1.612806152E1,1.186582489E0,5.462590485E0,1.706933629E1
4.200167417E0,1.719369553E1,1.591340790E0,4.236939240E0,1.777940341E1
4.210188417E0,1.775233383E1,1.691332855E0,2.965632935E0,1.807763652E1
4.220209417E0,1.679417633E1,1.498084717E0,1.544188843E0,1.693142450E1
4.230231417E0,1.404843613E1,1.210233307E0,2.862048340E-1,1.410337319E1
4.240252417E0,1.124102417E1,9.237290955E-1,-1.474433899E-1,1.127987763E1
4.250274417E0,9.020092621E0,5.855822754E-1,-3.059637451E-1,9.044257366E0
4.260295417E0,7.372169495E0,2.291734314E-1,-2.145039368E-1,7.378849196E0
4.270317417E0,6.314918060E0,-1.591191101E-1,-3.996688843E-2,6.317048864E0
4.280338417E0,5.840105438E0,-4.427792358E-1,1.484912109E-1,5.858748554E0
4.290359417E0,5.632487183E0,-8.490344238E-1,5.619314575E-1,5.723769586E0
4.300381417E0,5.467380524E0,-1.427132263E0,9.532177734E-1,5.730408398E0
4.310402417E0,5.368136902E0,-1.974843292E0,9.059161377E-1,5.791164294E0
4.320424417E0,5.307213593E0,-2.349813538E0,5.918692017E-1,5.834247932E0
4.330445417E0,5.407205658E0,-2.436932373E0,3.517684937E-1,5.941401644E0
4.340466417E0,5.663023682E0,-2.453697510E0,2.359094238E-1,6.176254686E0
4.350487792E0,6.019731903E0,-2.465223541E0,1.351689148E-1,6.506363802E0
4.360508792E0,6.556365967E0,-2.575394440E0,8.996292114E-2,7.044620965E0
4.370530792E0,7.425458679E0,-2.595602417E0,-1.451980591E-2,7.866053606E0
4.380551792E0,8.373137970E0,-2.470312958E0,-3.137475586E-1,8.735578006E0
4.390573792E0,8.975784760E0,-2.305505676E0,-1.215472412E0,9.346520297E0
4.400594792E0,9.324559479E0,-1.948049011E0,-2.920576630E0,9.963537137E0
4.410615792E0,9.984087982E0,-1.451531525E0,-4.634662170E0,1.110265959E1
4.420637792E0,1.084464844E1,-1.173110504E0,-5.572761383E0,1.224901047E1
4.430658792E0,1.141840530E1,-1.077160034E0,-5.866450653E0,1.288237155E1
4.440680792E0,1.164204025E1,-1.148561554E0,-4.864434357E0,1.266960996E1
4.450701792E0,1.123578506E1,-1.252295837E0,-3.261717224E0,1.176647399E1
4.460722792E0,1.037058426E1,-1.071771240E0,-1.816772003E0,1.058292833E1
4.470744792E0,9.547745361E0,-8.084687805E-1,-9.632469177E-1,9.630208091E0
4.480765792E0,9.098080444E0,-2.722837830E-1,-5.486091614E-1,9.118671956E0
4.490787792E0,1.141346558E1,3.721560974E0,5.658233643E-2,1.200501621E1
4.500808792E0,9.669891357E0,2.869981842E0,8.734336853E-1,1.012454844E1
4.510829792E0,6.867568817E0,-8.511300659E-1,2.369871826E0,7.314657635E0
4.520851792E0,7.282206573E0,-5.619314575E-1,4.302652588E0,8.476975807E0
4.530872792E0,6.373596039E0,-2.158810730E0,4.726720734E0,8.223446913E0
4.540894792E0,6.307882690E0,-2.803819427E0,5.137765961E0,8.605081434E0
4.550915792E0,6.414311371E0,-3.346740417E0,5.251080322E0,8.939681557E0
4.560936792E0,6.682553558E0,-3.905378723E0,4.651427307E0,9.030187209E0
4.570958792E0,7.053332520E0,-4.303850098E0,4.110601959E0,9.228741721E0
4.580979792E0,7.371720428E0,-4.471351776E0,4.002227325E0,9.505423312E0
4.591001792E0,7.590565338E0,-3.751049652E0,4.142335968E0,9.425815769E0
4.601022792E0,7.512727203E0,-2.913990326E0,4.085154877E0,9.034428594E0
4.611043792E0,7.502099304E0,-2.476450195E0,4.145479431E0,8.921843938E0
4.621065792E0,7.691754913E0,-1.964065704E0,4.166286163E0,8.965410651E0
4.631086792E0,7.941884766E0,-1.430874481E0,4.039649506E0,9.024394913E0
4.641108792E0,8.136929169E0,-9.574090576E-1,3.978277130E0,9.107850313E0
4.651129792E0,8.339607697E0,-5.270539856E-1,3.798201599E0,9.178952981E0
4.661150792E0,8.639583893E0,-1.185534668E-1,3.329077148E0,9.259547474E0
4.671172792E0,8.962911530E0,3.046165466E-1,2.825524292E0,9.402667805E0
4.681193792E0,9.248068542E0,6.643185425E-1,2.614612885E0,9.633498400E0
4.691215792E0,9.492659912E0,8.345146179E-1,2.786006470E0,9.928184069E0
4.701236792E0,9.735455017E0,8.181985474E-1,3.282074890E0,1.030633537E1
4.711257792E0,9.965526581E0,4.351451111E-1,4.001628571E0,1.074774872E1
4.721279792E0,1.011970596E1,-3.851490784E-1,4.854854279E0,1.123060099E1
4.731300792E0,1.032492920E1,-1.162482605E0,5.633535004E0,1.181914741E1
4.741322792E0,1.071531738E1,-1.628613281E0,5.877527618E0,1.232946628E1
4.751343792E0,1.098969681E1,-1.919009399E0,5.336552582E0,1.236668211E1
4.761364792E0,1.111648315E1,-2.061063995E0,4.731361084E0,1.225601731E1
4.771386792E0,1.127215942E1,-1.886526947E0,4.542753296E0,1.229866535E1
4.781407792E0,1.162632294E1,-1.052910461E0,4.468507690E0,1.249990266E1
4.791429792E0,1.228360611E1,-1.372645569E-1,4.461172943E0,1.306934905E1
4.801450792E0,1.310599594E1,1.519340515E-1,4.580325165E0,1.388414895E1
4.811471792E0,1.412567551E1,-1.402583313E-1,4.693938904E0,1.488581349E1
4.821493792E0,1.534908142E1,-6.604266357E-1,4.588258667E0,1.603379498E1
4.831514792E0,1.656335632E1,-1.064436493E0,3.999383240E0,1.707257637E1
4.841536792E0,1.722902206E1,-1.307680664E0,3.231480103E0,1.757815956E1
4.851557792E0,1.689701248E1,-1.308129730E0,2.204166412E0,1.709030672E1
4.861578792E0,1.549877014E1,-1.062939606E0,8.360115051E-1,1.555765509E1
4.871600792E0,1.352452560E1,-9.746232605E-1,-1.809736633E-1,1.356080509E1
4.881621792E0,1.162617325E1,-1.146914978E0,-6.179150391E-1,1.169893745E1
4.891643792E0,1.000205063E1,-1.370849304E0,-7.107220459E-1,1.012054200E1
4.901664792E0,8.637488251E0,-1.526076508E0,-4.727169800E-1,8.783995340E0
4.911685792E0,7.497309265E0,-1.487905884E0,-2.122586060E-1,7.646473949E0
4.921707792E0,6.524781647E0,-1.120420074E0,-3.203338623E-1,6.628026136E0
4.931728792E0,5.682782593E0,-4.825964355E-1,-4.584965515E-1,5.721637563E0
4.941750792E0,5.004992065E0,2.950364685E-1,-6.255491638E-1,5.052554191E0
4.951771792E0,4.486470337E0,1.047671356E0,-1.096769257E0,4.735919568E0
4.961792792E0,4.175267487E0,1.572030945E0,-1.758842468E0,4.795588254E0
4.971814792E0,4.158053284E0,1.838476868E0,-2.612816620E0,5.243683342E0
4.981835792E0,4.522844696E0,1.831291809E0,-3.879033508E0,6.233510632E0
4.991857792E0,5.306016083E0,1.535506897E0,-5.431155853E0,7.746550329E0
5.001878792E0,6.375691681E0,1.093925171E0,-6.662345581E0,9.286170649E0
5.011899792E0,7.535629578E0,5.390290833E-1,-6.809339905E0,1.017071165E1
5.021921792E0,8.550519104E0,1.203497314E-1,-5.866600342E0,1.037028739E1
5.031942792E0,9.541159058E0,-3.607498169E-2,-4.774621124E0,1.066920918E1
5.041964792E0,1.040052200E1,-7.634124756E-2,-3.965104523E0,1.113098108E1
5.051985792E0,1.099284027E1,6.616241455E-2,-3.346590729E0,1.149115243E1
5.062006792E0,1.119731506E1,4.360432434E-1,-2.685265961E0,1.152304871E1
5.072028792E0,1.106708588E1,8.762777710E-1,-2.078427887E0,1.129460557E1
5.082049792E0,1.074555450E1,1.251098328E0,-1.682650909E0,1.094821916E1
5.092071792E0,1.030292496E1,1.397643585E0,-1.317260742E0,1.048040296E1
5.102092792E0,9.892777863E0,1.323697357E0,-8.318202209E-1,1.001554559E1
5.112113792E0,9.559121704E0,1.189875641E0,-4.466711426E-1,9.643242551E0
5.122135792E0,9.314380646E0,1.057700500E0,-1.839674377E-1,9.376047204E0
5.132156792E0,9.160201263E0,9.363029480E-1,8.906478882E-2,9.208359405E0
5.142177792E0,9.007369080E0,7.946974182E-1,3.411405945E-1,9.048791004E0
5.152199792E0,8.872050476E0,6.014492798E-1,7.764353943E-1,8.926246289E0
5.162220792E0,8.784781952E0,3.435356140E-1,1.919757843E0,8.998659947E0
5.172242792E0,8.807085571E0,3.891906738E-2,3.096610565E0,9.335698578E0
5.182263792E0,8.729397125E0,-1.487905884E-1,3.634142761E0,9.456823273E0
5.192284792E0,8.427774353E0,-2.844085693E-3,4.238885193E0,9.433744554E0
5.202306792E0,8.080197144E0,4.113446045E-1,4.362228699E0,9.191726143E0
5.212327792E0,7.869884491E0,8.592132568E-1,4.104764099E0,8.917534280E0
5.222349792E0,7.854017487E0,1.250798950E0,3.849993896E0,8.835866777E0
5.232370792E0,7.935448151E0,1.491648102E0,3.590882721E0,8.836899350E0
5.242391792E0,8.066874847E0,1.620530090E0,3.406615906E0,8.905370262E0
5.252413792E0,8.181087341E0,1.673370209E0,3.425326996E0,9.025697921E0
5.262434792E0,8.255931702E0,1.627864838E0,3.505410461E0,9.115824411E0
5.272456792E0,8.271649017E0,1.498982849E0,3.586841125E0,9.139614670E0
5.282477792E0,8.300838318E0,1.344354401E0,3.675606537E0,9.177215751E0
5.292498792E0,8.453371124E0,1.153501282E0,3.805985413E0,9.342139666E0
5.302520792E0,8.726403351E0,9.731263733E-1,3.884571991E0,9.601405623E0
5.312541792E0,9.039252777E0,8.675958252E-1,3.802093506E0,9.844629415E0
5.322563792E0,9.350455627E0,7.905061340E-1,3.519481201E0,1.002210898E1
5.332584792E0,9.647887115E0,7.613168335E-1,3.104095001E0,1.016350013E1
5.342605792E0,9.910590820E0,7.587721252E-1,2.636766815E0,1.028338878E1
5.352628708E0,1.014290771E1,7.203021240E-1,2.277813263E0,1.042045322E1
5.362649708E0,1.047132477E1,5.598358154E-1,2.218985596E0,1.071848663E1
5.372670708E0,1.076411591E1,4.719685364E-1,2.351460114E0,1.102806920E1
5.382692708E0,1.095556778E1,6.581813049E-1,2.514920197E0,1.125977316E1
5.392713708E0,1.115091156E1,1.021326141E0,2.546205139E0,1.148342703E1
5.402735708E0,1.137095398E1,1.319955139E0,2.371069336E0,1.169028852E1
5.412756708E0,1.160596527E1,1.341210938E0,2.244582367E0,1.189686625E1
5.422777708E0,1.175221115E1,1.070424042E0,2.369273071E0,1.203635034E1
5.432799708E0,1.192659851E1,6.905140686E-1,2.954106903E0,1.230639303E1
5.442820708E0,1.249376907E1,2.811154175E-1,3.765719147E0,1.305197043E1
5.452842708E0,1.357437195E1,-7.499404907E-2,4.312681732E0,1.424318860E1
5.462863708E0,1.479762817E1,-3.637435913E-2,4.236490173E0,1.539217242E1
5.472884708E0,1.583092941E1,3.297642517E-1,3.350632324E0,1.618498710E1
5.482906708E0,1.662353119E1,6.644682312E-1,2.167642365E0,1.677742473E1
5.492927708E0,1.676543610E1,9.520202637E-1,1.053658905E0,1.682546841E1
5.502948708E0,1.542437485E1,1.041833496E0,-1.718426514E-1,1.546047497E1
5.512970708E0,1.291693909E1,7.656578064E-1,-1.030307465E0,1.298056550E1
5.522991708E0,1.059377014E1,4.177812195E-1,-1.203048248E0,1.067004368E1
5.533013708E0,8.762628021E0,1.416055298E-1,-1.141526184E0,8.837804252E0
5.543034708E0,7.401059418E0,-8.532257080E-2,-1.004111938E0,7.469350790E0
5.553055708E0,6.420747986E0,-4.493655396E-1,-8.713380432E-1,6.495164669E0
5.563077708E0,5.739963684E0,-1.037492523E0,-9.062155151E-1,5.902948449E0
5.573098708E0,5.323679352E0,-1.791324921E0,-9.958790588E-1,5.704575524E0
5.583120708E0,5.172942810E0,-2.498454437E0,-1.060843964E0,5.841832059E0
5.593141708E0,5.143753510E0,-3.025358734E0,-1.066681824E0,6.062079326E0
5.603162708E0,5.272934875E0,-3.331921234E0,-1.082099762E0,6.330598803E0
5.613184708E0,5.713917847E0,-3.408561859E0,-1.274749146E0,6.774373513E0
5.623205708E0,6.495143280E0,-3.224744110E0,-1.614542542E0,7.429172795E0
5.633226708E0,7.519912262E0,-2.870430908E0,-1.966161346E0,8.285785688E0
5.643248708E0,8.590485992E0,-2.498304749E0,-2.352657623E0,9.250566150E0
5.653269708E0,9.552535400E0,-2.163600769E0,-2.900668030E0,1.021498781E1
5.663291708E0,1.039288788E1,-1.830393677E0,-3.560495911E0,1.113730625E1
5.673312708E0,1.102262833E1,-1.434167633E0,-4.296515350E0,1.191701373E1
5.683333708E0,1.137469620E1,-9.788145447E-1,-4.557722168E0,1.229286878E1
5.693355708E0,1.133592682E1,-7.432044983E-1,-3.769311676E0,1.196926482E1
5.703376708E0,1.089269852E1,-8.391549683E-1,-2.394121399E0,1.118422457E1
5.713397708E0,1.022433838E1,-9.433383179E-1,-1.182391205E0,1.033561955E1
5.723419708E0,9.504485321E0,-8.881031799E-1,-3.409909058E-1,9.551975883E0
5.733440708E0,8.892857208E0,-7.768844604E-1,6.062393188E-2,8.926933071E0
5.743462708E0,8.530161438E0,-5.548960876E-1,1.541793823E-1,8.549580990E0
5.753483708E0,8.577163696E0,-3.122506714E-1,1.269360352E-1,8.583784149E0
5.763504708E0,8.841813354E0,-1.169068909E-1,8.681945801E-1,8.885105089E0
5.773526708E0,9.613907776E0,5.978567505E-1,2.172881470E0,9.874516155E0
5.783547708E0,1.159518768E1,3.210673370E0,3.265908508E0,1.246687448E1
5.793568708E0,7.798932037E0,-1.275347900E0,2.754871216E0,8.368940710E0
5.803590708E0,7.163054352E0,-2.200424194E0,3.892056427E0,8.443892320E0
5.813611708E0,6.794820099E0,-2.423011322E0,4.267026672E0,8.381412808E0
5.823633708E0,6.327491913E0,-3.071612549E0,4.029320984E0,8.106009200E0
5.833654708E0,6.428082733E0,-3.404071198E0,3.950884094E0,8.277525806E0
5.843675708E0,6.926097107E0,-3.609893188E0,3.700454865E0,8.642656777E0
5.853697708E0,7.543712769E0,-3.537892914E0,3.386258240E0,8.993944267E0
5.863718708E0,7.876919861E0,-2.846780090E0,2.869383087E0,8.853439031E0
5.873739708E0,7.912845154E0,-2.295626221E0,2.445464630E0,8.594376966E0
5.883761708E0,8.019423523E0,-2.037862244E0,2.241139526E0,8.572440874E0
5.893782708E0,8.222102051E0,-1.694626007E0,2.079775085E0,8.648709953E0
5.903804708E0,8.374485168E0,-1.307231598E0,1.967508545E0,8.701261182E0
5.913825708E0,8.537047119E0,-9.336085510E-1,1.986818390E0,8.814774288E0
5.923846708E0,8.773704987E0,-5.791456604E-1,1.996248779E0,9.016557995E0
5.933868708E0,9.035360870E0,-2.619552612E-1,1.961071930E0,9.249441590E0
5.943889708E0,9.315129089E0,-8.232879639E-3,1.932930450E0,9.513564939E0
5.953910708E0,9.494007111E0,1.185534668E-1,2.060764618E0,9.715810658E0
5.963932708E0,9.622440033E0,1.172062683E-1,2.303709412E0,9.895057683E0
5.973953708E0,9.801767120E0,-4.640350342E-3,2.707419891E0,1.016881422E1
5.983975708E0,1.005264542E1,-2.615061951E-1,3.173999634E0,1.054506231E1
5.993996708E0,1.030337402E1,-4.613406372E-1,3.668571167E0,1.094672398E1
6.004017708E0,1.049228119E1,-4.577481079E-1,4.061054993E0,1.126009172E1
6.014039708E0,1.061831909E1,-3.641926575E-1,4.136049042E0,1.140123845E1
6.024060708E0,1.061023590E1,-4.090992737E-1,3.799399109E0,1.127740669E1
6.034082708E0,1.063373703E1,-5.508544922E-1,3.538641357E0,1.122059653E1
6.044103708E0,1.065364563E1,-7.969427490E-1,3.505560150E0,1.124385321E1
6.054124708E0,1.055410263E1,-9.836045837E-1,3.548820190E0,1.117813424E1
6.064146708E0,1.036669235E1,-8.457412720E-1,3.689078522E0,1.103598156E1
6.074167708E0,1.025906616E1,-4.638853455E-1,4.014651489E0,1.102637995E1
6.084188708E0,1.037118301E1,-3.608995056E-1,4.413272552E0,1.127690827E1
6.094210708E0,1.073208252E1,-5.492079163E-1,4.569248199E0,1.167721087E1
6.104231708E0,1.135089569E1,-8.846603394E-1,4.553231506E0,1.226202977E1
6.114253708E0,1.206640778E1,-1.273701324E0,4.411176910E0,1.291042189E1
6.124274708E0,1.276096344E1,-1.645528107E0,4.179309082E0,1.352836188E1
6.134295708E0,1.344339432E1,-1.980082397E0,3.926933899E0,1.414448256E1
6.144317708E0,1.416878586E1,-2.238295441E0,3.444187775E0,1.475218250E1
6.154338708E0,1.458776459E1,-2.430795135E0,2.500699768E0,1.499883795E1
6.164359708E0,1.447385147E1,-2.487826538E0,1.299896851E0,1.474352024E1
6.174381708E0,1.378498398E1,-2.389780426E0,2.432441711E-1,1.399271244E1
6.184402708E0,1.267414398E1,-2.311792603E0,-4.480183411E-1,1.289104461E1
6.194423708E0,1.147513733E1,-2.189496918E0,-8.393046570E-1,1.171226305E1
6.204445708E0,1.040845551E1,-2.140099640E0,-1.021775208E0,1.067520478E1
6.214466708E0,9.420509949E0,-2.064207458E0,-1.005309448E0,9.696267695E0
6.224488708E0,8.511749725E0,-1.844165039E0,-9.789642334E-1,8.764085751E0
6.234509708E0,7.776778107E0,-1.320703583E0,-1.056802368E0,7.958603327E0
6.244530708E0,7.180118866E0,-5.289999390E-1,-1.257085876E0,7.308502772E0
6.254552708E0,6.718628540E0,3.953279114E-1,-1.678160248E0,6.936315696E0
6.264573708E0,6.409221954E0,1.364113312E0,-2.435734863E0,6.990832247E0
6.274594708E0,6.330934753E0,2.101180573E0,-3.269800415E0,7.428814805E0
6.284616708E0,6.488107910E0,2.556084595E0,-4.046086121E0,8.062253134E0
6.294637708E0,6.764582977E0,2.686613159E0,-4.709356842E0,8.669228050E0
6.304659708E0,7.233258362E0,2.473007355E0,-5.223986664E0,9.258824362E0
6.314680708E0,7.902217255E0,1.880838776E0,-5.429658966E0,9.770557227E0
6.324701708E0,8.499774628E0,1.196611633E0,-5.314997406E0,1.009590241E1
6.334723708E0,9.015751648E0,7.030879211E-1,-4.893174591E0,1.028208481E1
6.344744708E0,9.450747070E0,2.803669739E-1,-4.295617218E0,1.038496765E1
6.354769417E0,9.850715332E0,-6.197113037E-2,-3.350332947E0,1.040505472E1
6.364791417E0,1.019559814E1,-3.311114502E-1,-2.455344086E0,1.049231008E1
6.374812417E0,1.032732422E1,-4.782554626E-1,-1.529519348E0,1.045092260E1
6.384834417E0,1.024439667E1,-3.879931641E-1,-7.370672607E-1,1.027820363E1
6.394855417E0,9.966574402E0,-1.031355286E-1,-3.367996216E-2,9.967164922E0
6.404876417E0,9.533524933E0,1.892065430E-1,4.575984192E-1,9.546375913E0
6.414898417E0,9.122629395E0,3.863465881E-1,5.399272156E-1,9.146756373E0
6.424919417E0,8.880433044E0,5.942642212E-1,3.835025024E-1,8.908552923E0
6.434940417E0,8.752000122E0,8.753796387E-1,3.299139404E-1,8.801854285E0
6.444962417E0,8.701255646E0,1.148860931E0,5.120851135E-1,8.791698494E0
6.454983417E0,8.784183197E0,1.346150665E0,9.807604980E-1,8.940687178E0
6.465004417E0,8.918603668E0,1.256337433E0,1.423988800E0,9.118531638E0
6.475026417E0,9.004375305E0,8.131091309E-1,1.855840759E0,9.229521440E0
6.485047417E0,8.976682892E0,3.132984924E-1,2.278412018E0,9.266614970E0
6.495069417E0,8.834927673E0,-1.085243225E-1,2.571502533E0,9.202192663E0
6.505090417E0,8.582253113E0,-4.085005188E-1,2.919678497E0,9.074495231E0
6.515111417E0,8.201744385E0,-3.561094666E-1,3.241209869E0,8.826146743E0
6.525133417E0,7.864944763E0,-1.032852173E-2,3.426225128E0,8.578839166E0
6.535154417E0,7.750732269E0,3.989204407E-1,3.493585052E0,8.511058967E0
6.545175417E0,7.849676514E0,7.066804504E-1,3.384911041E0,8.577554511E0
6.555197417E0,8.071066132E0,8.009843445E-1,3.094215546E0,8.680890177E0
6.565218417E0,8.356821899E0,7.515870667E-1,2.738854523E0,8.826249457E0
6.575239417E0,8.620124359E0,6.486012268E-1,2.423161011E0,8.977691062E0
6.585261417E0,8.826694794E0,5.812413025E-1,2.245929565E0,9.126476979E0
6.595282417E0,8.996441803E0,5.680686951E-1,2.200424194E0,9.279037331E0
6.605304417E0,9.237740021E0,5.345384216E-1,2.334096222E0,9.543038153E0
6.615325417E0,9.553732910E0,5.032534790E-1,2.445314941E0,9.874545141E0
6.625346417E0,9.861193542E0,5.870791626E-1,2.420616302E0,1.017089884E1
6.635368417E0,1.015308655E1,7.622149658E-1,2.295476532E0,1.043720991E1
6.645389417E0,1.043255539E1,1.016985168E0,2.073937225E0,1.068520877E1
6.655410417E0,1.067370392E1,1.318607941E0,1.732497253E0,1.089349480E1
6.665432417E0,1.076531342E1,1.636546783E0,1.245559845E0,1.096000354E1
6.675453417E0,1.064481400E1,1.877096558E0,8.391549683E-1,1.084157450E1
6.685475417E0,1.043524979E1,1.886676636E0,6.776408386E-1,1.062606154E1
6.695496417E0,1.033705399E1,1.611099701E0,9.131011963E-1,1.050162279E1
6.705517417E0,1.039707916E1,1.397194519E0,1.471589813E0,1.059325182E1
6.715539417E0,1.046713348E1,1.434916077E0,2.024689636E0,1.075728756E1
6.725560417E0,1.055530014E1,1.535656586E0,2.405497742E0,1.093430481E1
6.735581417E0,1.070094727E1,1.505868530E0,2.714604950E0,1.114212693E1
6.745603417E0,1.088251968E1,1.330583038E0,3.076402588E0,1.138700745E1
6.755624417E0,1.109597580E1,1.103954315E0,3.595972137E0,1.171624555E1
6.765645417E0,1.128144012E1,9.108558655E-1,4.056714020E0,1.202320583E1
6.775667417E0,1.158575729E1,6.676116943E-1,4.247118073E0,1.235772994E1
6.785688417E0,1.212254105E1,2.707868958E-1,4.154161377E0,1.281742500E1
6.795710417E0,1.290990372E1,-1.435514832E-1,3.686982880E0,1.342684117E1
6.805731417E0,1.367122055E1,-1.993853760E-1,2.788551178E0,1.395414073E1
6.815752417E0,1.420007080E1,8.068222046E-2,1.645079041E0,1.429527214E1
6.825774417E0,1.435739365E1,5.069956970E-1,5.098397827E-1,1.437538638E1
6.835795417E0,1.394709686E1,9.363029480E-1,-5.313949585E-1,1.398858659E1
6.845816417E0,1.297187485E1,1.056203613E0,-1.292562103E0,1.307883098E1
6.855838417E0,1.148771118E1,7.557783508E-1,-1.750459900E0,1.164486234E1
6.865859417E0,9.917775879E0,1.510359192E-1,-1.910626831E0,1.010126651E1
6.875880417E0,8.624315643E0,-4.822970581E-1,-1.851050720E0,8.833901716E0
6.885902417E0,7.674840088E0,-1.018032990E0,-1.634002075E0,7.912618045E0
6.895923417E0,7.096742249E0,-1.562600555E0,-1.407672729E0,7.401825015E0
6.905945417E0,6.793921967E0,-2.092498627E0,-1.269809418E0,7.221380903E0
6.915966417E0,6.667434998E0,-2.519111481E0,-1.189875641E0,7.226092730E0
6.925987417E0,6.757397919E0,-2.828967133E0,-1.093775482E0,7.406876972E0
6.936009417E0,7.044051819E0,-3.063379669E0,-1.058598633E0,7.753940423E0
6.946030417E0,7.471712494E0,-3.328328705E0,-1.091230774E0,8.251972138E0
6.956051417E0,8.046816559E0,-3.732937317E0,-1.310375061E0,8.966780947E0
6.966073417E0,8.800199890E0,-3.783681793E0,-1.569037170E0,9.706783384E0
6.976094417E0,9.375154266E0,-3.171305237E0,-1.598525848E0,1.002526704E1
6.986115417E0,9.736353149E0,-2.167193298E0,-1.574875031E0,1.009819443E1
6.996137417E0,9.978399811E0,-1.178948364E0,-1.796564026E0,1.020715555E1
7.006158417E0,1.025098297E1,-3.757186890E-1,-2.360291748E0,1.052591058E1
7.016180417E0,1.058419006E1,1.664538574E-1,-2.851869507E0,1.096293509E1
7.026201417E0,1.064331711E1,1.591191101E-1,-2.017205200E0,1.083395748E1
7.036222417E0,1.026056305E1,-3.701802063E-1,-1.107995911E0,1.032685056E1
7.046244417E0,9.776320038E0,-6.116281128E-1,-7.958949280E-1,9.827714443E0
7.056265417E0,9.427695007E0,-7.053332520E-1,-3.659889221E-1,9.461124460E0
7.066286417E0,9.140592041E0,-8.056246948E-1,-1.272354126E-1,9.176908132E0
7.076308417E0,8.799451447E0,-8.761280823E-1,-9.310638428E-2,8.843450400E0
7.086329417E0,8.560398560E0,-1.018781433E0,-6.810836792E-2,8.621077535E0
7.096350417E0,8.443940735E0,-1.302142181E0,1.077758789E-1,8.544432400E0
7.106372417E0,8.350834351E0,-1.657203827E0,4.028123474E-1,8.523204601E0
7.116393417E0,8.284222870E0,-1.944157104E0,1.093326416E0,8.579245774E0
7.126414417E0,8.283923492E0,-2.066602478E0,1.880240021E0,8.742398799E0
7.136436417E0,8.275391235E0,-2.065404968E0,2.558928680E0,8.904836538E0
7.146457417E0,8.263865204E0,-1.951791229E0,2.987038422E0,9.001297442E0
7.156479417E0,8.182733917E0,-1.867067413E0,2.919379120E0,8.886273096E0
7.166500417E0,7.982001343E0,-1.829944611E0,2.590063934E0,8.588915758E0
7.176521417E0,7.766898651E0,-1.755549316E0,2.148033142E0,8.247467153E0
7.186543417E0,7.635172577E0,-1.575324097E0,1.700314178E0,7.979259025E0
7.196564417E0,7.356152802E0,-1.784888306E0,1.423689423E0,7.702317955E0
7.206585417E0,7.247179413E0,-2.083068237E0,1.641336823E0,7.717173659E0
7.216607417E0,7.770341492E0,-1.705852661E0,1.880689087E0,8.174664008E0
7.226628417E0,8.186625824E0,-1.488654327E0,1.796863403E0,8.512675970E0
7.236649417E0,8.488398285E0,-1.319805450E0,1.611848145E0,8.740300127E0
7.246671417E0,8.635841675E0,-1.090482330E0,1.472487946E0,8.828087782E0
7.256692417E0,8.698860626E0,-8.433462524E-1,1.473535767E0,8.862997052E0
7.266714417E0,8.781788177E0,-5.605842590E-1,1.663191376E0,8.955460003E0
7.276735417E0,8.938362579E0,-2.224374390E-1,1.909878387E0,9.142835417E0
7.286756417E0,9.178612976E0,1.363664246E-1,2.134710846E0,9.424570142E0
7.296778417E0,9.513316956E0,4.665797424E-1,2.299817505E0,9.798472162E0
7.306799417E0,9.880054321E0,6.779402161E-1,2.417772217E0,1.019415023E1
7.316820417E0,1.023257126E1,6.382727051E-1,2.670297089E0,1.059449825E1
7.326842417E0,1.059601547E1,2.028282166E-1,3.239114227E0,1.108190165E1
7.336863417E0,1.084824097E1,-5.839356995E-1,3.905378723E0,1.154457864E1
7.346884417E0,1.089090225E1,-1.253643036E0,4.253704376E0,1.175914000E1
7.356902417E0,1.077728851E1,-1.643582153E0,3.817062378E0,1.155081275E1
7.366923417E0,1.063493454E1,-1.862427063E0,2.957250366E0,1.119445385E1
7.376944417E0,1.080752563E1,-1.984722748E0,2.306254120E0,1.122766863E1
7.386966417E0,1.126602219E1,-1.955383759E0,2.122136993E0,1.162971397E1
7.396987417E0,1.171134613E1,-1.603914642E0,2.176473999E0,1.201936810E1
7.407009417E0,1.197734299E1,-9.071136475E-1,2.700085144E0,1.231137929E1
7.417030417E0,1.181073944E1,-1.269360352E-1,3.966002655E0,1.245948859E1
7.427051417E0,1.115764755E1,4.224215698E-1,5.198240204E0,1.231638097E1
7.437073417E0,1.082129700E1,5.025050354E-1,5.395529938E0,1.210226108E1
7.447094417E0,1.118189713E1,1.615141296E-1,5.071004791E0,1.227908790E1
7.457115417E0,1.197584610E1,-3.790118408E-1,4.465064850E0,1.278676440E1
7.467137417E0,1.295540909E1,-9.607022095E-1,3.714974670E0,1.351172121E1
7.477158417E0,1.393841492E1,-1.625170441E0,2.909349976E0,1.433125628E1
7.487179417E0,1.456426346E1,-2.357447662E0,1.962419128E0,1.488376358E1
7.497201417E0,1.473924957E1,-2.852917328E0,8.699908447E-1,1.503800184E1
7.507222417E0,1.442146042E1,-2.934946747E0,-1.712438965E-1,1.471807588E1
7.517244417E0,1.355625961E1,-2.809208221E0,-8.009843445E-1,1.386742231E1
7.527265417E0,1.230426315E1,-2.700683899E0,-1.192270660E0,1.265346176E1
7.537286417E0,1.093116852E1,-2.740351410E0,-1.312620392E0,1.134561340E1
7.547308417E0,9.537267151E0,-2.829715576E0,-1.413211212E0,1.004808046E1
7.557329417E0,8.205336914E0,-2.734812927E0,-1.613794098E0,8.798357063E0
7.567350417E0,7.060517578E0,-2.367327118E0,-1.917063446E0,7.689621474E0
7.577372417E0,6.126310272E0,-1.683399353E0,-2.229014740E0,6.733054110E0
7.587393417E0,5.476062469E0,-8.005352783E-1,-2.574795685E0,6.103907742E0
7.597414417E0,5.181026001E0,8.262817383E-2,-3.072660370E0,6.024209457E0
7.607436417E0,5.144352264E0,8.099656677E-1,-3.689377899E0,6.382155896E0
7.617457417E0,5.374872894E0,1.330133972E0,-4.342469788E0,7.036729274E0
7.627478417E0,5.848338318E0,1.603166199E0,-5.021008759E0,7.872974781E0
7.637500417E0,6.589147797E0,1.422641602E0,-5.611680450E0,8.771073782E0
7.647521417E0,7.497758331E0,8.243357849E-1,-5.961203613E0,9.614148844E0
7.657542417E0,8.390950928E0,2.080673218E-1,-5.768105164E0,1.018441882E1
7.667564417E0,9.257199554E0,-9.430389404E-2,-4.958588562E0,1.050201111E1
7.677585417E0,9.998907166E0,-1.505868530E-1,-4.200115814E0,1.084628018E1
7.687607417E0,1.050620224E1,-3.293151855E-3,-3.667972412E0,1.112808690E1
7.697628417E0,1.071531738E1,3.153941345E-1,-3.266357574E0,1.120654237E1
7.707649417E0,1.064032333E1,7.818241882E-1,-2.897973633E0,1.105558596E1
7.717671417E0,1.035531601E1,1.193318481E0,-2.531535645E0,1.072684722E1
7.727692417E0,1.006956024E1,1.326242065E0,-2.192939758E0,1.039057006E1
7.737713417E0,9.837692413E0,1.194515991E0,-1.878892822E0,1.008649090E1
7.747735417E0,9.723030853E0,1.005159760E0,-1.326691132E0,9.864470816E0
7.757756417E0,9.600585480E0,9.398954773E-1,-5.679190063E-1,9.663186693E0
7.767777417E0,9.376501465E0,9.909393311E-1,2.077679443E-1,9.431007793E0
7.777799417E0,9.198222198E0,1.107247467E0,1.748364258E0,9.428152849E0
7.787820417E0,9.287736053E0,1.082249451E0,2.934497681E0,9.800233748E0
7.797842417E0,9.361532593E0,9.568103027E-1,3.503165131E0,1.004121230E1
7.807863417E0,9.168733521E0,8.610095215E-1,4.445156250E0,1.022577263E1
7.817884417E0,8.777297516E0,6.644682312E-1,5.121749268E0,1.018404562E1
7.827906417E0,8.321944427E0,4.080514526E-1,5.350623322E0,9.902041960E0
7.837927417E0,7.816295929E0,2.896476746E-1,5.305866394E0,9.451486445E0
7.847948417E0,7.445816345E0,2.469863892E-1,4.947062531E0,8.942852509E0
7.857970417E0,7.405250702E0,3.372486877E-1,4.491709442E0,8.667579152E0
7.867991417E0,7.722441101E0,5.245092773E-1,3.717369690E0,8.586620054E0
7.878012417E0,8.162675629E0,6.881190491E-1,2.785856781E0,8.652385755E0
7.888034417E0,8.466843109E0,8.232879639E-1,2.037712555E0,8.747428637E0
7.898055417E0,8.648864594E0,8.378077698E-1,1.650916901E0,8.844789835E0
7.908076417E0,8.705446930E0,7.351213074E-1,1.501976624E0,8.864600576E0
7.918098417E0,8.727151794E0,5.929170227E-1,1.524130554E0,8.879059803E0
7.928119417E0,8.724307709E0,3.722758484E-1,1.662442932E0,8.889086050E0
7.938140417E0,8.730894012E0,1.227447510E-1,1.763931885E0,8.908144152E0
7.948162417E0,8.772806854E0,-9.445358276E-2,1.815873871E0,8.959266683E0
7.958183417E0,8.912915497E0,-2.083666992E-1,1.816173248E0,9.098459463E0
7.968205417E0,9.188791809E0,-1.675016785E-1,1.773062897E0,9.359791865E0
7.978226417E0,9.549242249E0,-6.286926270E-3,1.772613831E0,9.712374933E0
7.988247417E0,9.989776154E0,2.266287231E-1,1.878743134E0,1.016743153E1
7.998269417E0,1.041055115E1,5.334906006E-1,1.978585510E0,1.061032460E1
8.008290417E0,1.063493454E1,1.000070343E0,2.017654266E0,1.087073604E1
8.018311417E0,1.070753357E1,1.492396545E0,2.035916290E0,1.100106712E1
8.028333417E0,1.064496368E1,1.881886597E0,2.058070221E0,1.100419929E1
8.038354417E0,1.057700500E1,2.107317810E0,2.118095398E0,1.099091222E1
8.048375417E0,1.061876816E1,2.094743958E0,2.295326843E0,1.106411835E1
8.058397417E0,1.074390793E1,1.906285858E0,2.606380005E0,1.121867640E1
8.068418417E0,1.088147186E1,1.630559235E0,3.079096985E0,1.142567248E1
8.078439417E0,1.089853638E1,1.287772064E0,3.599115601E0,1.154946255E1
8.088461417E0,1.072609497E1,8.009843445E-1,4.385280762E0,1.161556613E1
8.098482417E0,1.080947159E1,1.098715210E-1,5.460195465E0,1.211075895E1
8.108503417E0,1.120659576E1,-6.405180359E-1,6.251450043E0,1.284829481E1
8.118525417E0,1.186537582E1,-1.203048248E0,6.167324982E0,1.342648003E1
8.128546417E0,1.289433609E1,-1.302441559E0,5.086722107E0,1.392246383E1
8.138568417E0,1.408675644E1,-8.761280823E-1,3.668122101E0,1.458284702E1
8.148589417E0,1.494851440E1,-2.496807861E-1,2.339185638E0,1.513248865E1
8.158610417E0,1.502216125E1,3.597019958E-1,7.860154724E-1,1.504701082E1
8.168632417E0,1.405008270E1,9.243278503E-1,-7.047344971E-1,1.409807989E1
8.178653417E0,1.274928772E1,1.240171051E0,-1.455124054E0,1.289184811E1
8.188674417E0,1.158381134E1,1.523681488E0,-1.538350983E0,1.178443101E1
8.198696417E0,1.075408676E1,1.639540558E0,-1.553918610E0,1.098877329E1
8.208717417E0,1.010877869E1,1.197509766E0,-2.095642090E0,1.039293760E1
8.218738417E0,9.530531158E0,1.942959595E-1,-3.184328156E0,1.005030949E1
8.228760417E0,8.984017639E0,-9.862989807E-1,-4.365521851E0,1.003708821E1
8.238781417E0,8.628207550E0,-2.134561157E0,-5.267396393E0,1.033188180E1
8.248802417E0,8.411308594E0,-3.129691772E0,-5.727838898E0,1.064674698E1
8.258824417E0,8.049810333E0,-3.915707245E0,-5.491480408E0,1.050183635E1
8.268845417E0,7.511679382E0,-4.215533752E0,-4.589456177E0,9.760079916E0
8.278866417E0,6.963968353E0,-3.963158569E0,-3.287463684E0,8.660883243E0
8.288888417E0,6.511159973E0,-3.158432007E0,-2.116897888E0,7.540036711E0
8.298909417E0,6.180497589E0,-2.229314117E0,-1.541045380E0,6.748571163E0
8.308931417E0,6.256539459E0,-1.400487671E0,-1.718127136E0,6.637590872E0
8.318952417E0,6.729406128E0,-6.779402161E-1,-2.286495209E0,7.139507694E0
8.328973417E0,7.294930115E0,-7.424560547E-2,-2.893033905E0,7.848003757E0
8.338995417E0,7.742798767E0,4.477189636E-1,-2.846181335E0,8.261484928E0
8.349016417E0,8.016280060E0,7.030879211E-1,-2.596201172E0,8.455491656E0
8.359036583E0,8.276439056E0,5.469625854E-1,-2.655477905E0,8.709200562E0
8.369058583E0,8.607550507E0,2.142045593E-1,-2.725382538E0,9.031252366E0
8.379079583E0,9.094487915E0,-6.077362061E-2,-2.623743896E0,9.465592211E0
8.389100583E0,1.052775742E1,7.436535645E-1,-2.339185638E0,1.081011037E1
8.399122583E0,1.549682419E1,6.691684570E0,-1.686842194E0,1.696395116E1
8.409143583E0,9.126970367E0,-1.577868805E0,-3.758983154E0,9.996059844E0
8.419164583E0,1.023451721E1,-8.491841125E-1,-8.726852417E-1,1.030669859E1
8.429186583E0,8.912915497E0,-2.411036224E0,2.832110596E-1,9.237606120E0
8.439207583E0,7.523654480E0,-4.123624878E0,2.739153900E0,9.006254658E0
8.449228583E0,6.856342163E0,-4.854854279E0,4.120631104E0,9.357277308E0
8.459250583E0,6.479575653E0,-5.176086273E0,3.901935883E0,9.165253591E0
8.469271583E0,5.797593842E0,-5.437143402E0,4.399950256E0,9.084832689E0
8.479293583E0,5.460943909E0,-5.384303284E0,4.282743988E0,8.783764927E0
8.489314583E0,5.510341187E0,-5.092559967E0,3.921545105E0,8.466200034E0
8.499335583E0,5.839806061E0,-4.557273102E0,3.755989380E0,8.305391573E0
8.509357583E0,6.216871948E0,-3.885919189E0,3.444786530E0,8.100396225E0
8.519378583E0,6.622678070E0,-3.655099182E0,3.007246399E0,8.140217795E0
8.529399583E0,7.127877502E0,-3.491938477E0,2.378254395E0,8.285913708E0
8.539421583E0,7.612120514E0,-3.244353333E0,1.772464142E0,8.462377704E0
8.549442583E0,8.063132629E0,-2.863096161E0,1.415905609E0,8.672728297E0
8.559463583E0,8.502918091E0,-2.229314117E0,1.456321564E0,8.910125139E0
8.569485583E0,8.954379272E0,-1.461860046E0,1.686542816E0,9.228345985E0
8.579506583E0,9.445807343E0,-6.602769470E-1,1.943558350E0,9.666264069E0
8.589527583E0,9.885892181E0,1.101708984E-1,2.324216766E0,1.015603197E1
8.599549583E0,1.033001862E1,8.533753967E-1,2.852617950E0,1.075057967E1
8.609570583E0,1.071591614E1,1.353485413E0,3.837869110E0,1.146263585E1
8.619592583E0,1.100481537E1,1.534010010E0,4.998854828E0,1.218391142E1
8.629613583E0,1.123608444E1,1.290017395E0,5.595065002E0,1.261818096E1
8.639634583E0,1.127575195E1,-4.655319214E-2,5.035827942E0,1.234926364E1
8.649656583E0,1.124955643E1,-1.930984497E0,3.865262146E0,1.205078721E1
8.659677583E0,1.126377686E1,-2.815644836E0,2.934347992E0,1.197542997E1
8.669698583E0,1.101589233E1,-2.899470520E0,2.310295715E0,1.162300647E1
8.679720583E0,1.043435165E1,-2.589016113E0,2.257754974E0,1.098526997E1
8.689741583E0,9.847122803E0,-2.110311584E0,2.845432892E0,1.046497639E1
8.699762583E0,9.891879730E0,-1.573378143E0,3.600313110E0,1.064363932E1
8.709784583E0,1.065619034E1,-1.399290161E0,3.723057861E0,1.137425010E1
8.719805583E0,1.155073013E1,-1.506018219E0,3.284619598E0,1.210273454E1
8.729826583E0,1.234003876E1,-1.745969238E0,2.893033905E0,1.279431945E1
8.739848583E0,1.331316513E1,-2.083816681E0,2.573747864E0,1.371884965E1
8.749869583E0,1.452175186E1,-2.386337585E0,2.183808746E0,1.487766463E1
8.759890583E0,1.572450073E1,-2.381248169E0,1.770667877E0,1.600204771E1
8.769912583E0,1.675196411E1,-2.058968353E0,1.093176727E0,1.691338782E1
8.779933583E0,1.728979568E1,-1.778302002E0,-7.035369873E-2,1.738114906E1
8.789955583E0,1.691931610E1,-1.707948303E0,-1.320404205E0,1.705648885E1
8.799976583E0,1.525552597E1,-1.887425079E0,-2.732866974E0,1.561287955E1
8.809997583E0,1.286544617E1,-2.088906097E0,-3.388054504E0,1.346707641E1
8.820019583E0,1.039333694E1,-2.126777344E0,-3.367397461E0,1.113031897E1
8.830040583E0,8.277486877E0,-1.825903015E0,-3.410058746E0,9.136695873E0
8.840061583E0,6.670129395E0,-1.144070892E0,-3.430715790E0,7.587445893E0
8.850083583E0,5.467380524E0,-2.835104370E-1,-3.268153839E0,6.376006389E0
8.860104583E0,4.559967499E0,5.442681885E-1,-3.117566986E0,5.550563518E0
8.870125583E0,3.914958801E0,1.266216888E0,-3.102149048E0,5.153012356E0
8.880147583E0,3.483106842E0,1.833686829E0,-3.159928894E0,5.047731300E0
8.890168583E0,3.335364075E0,2.302811279E0,-3.333418121E0,5.247787121E0
8.900189583E0,3.519930267E0,2.615511017E0,-3.705394592E0,5.741145883E0
8.910211583E0,4.220623169E0,2.560275879E0,-4.148922272E0,6.448428377E0
8.920232583E0,5.416935425E0,1.977687378E0,-4.530778198E0,7.333647649E0
8.930253583E0,6.839127960E0,1.447938995E0,-4.608466644E0,8.373061770E0
8.940275583E0,8.500972137E0,1.067879333E0,-4.266577606E0,9.571341495E0
8.950296583E0,1.014126114E1,6.459068298E-1,-3.923191681E0,1.089283279E1
8.960318583E0,1.153725815E1,2.412982178E-1,-3.767515411E0,1.213922249E1
8.970339583E0,1.262220200E1,-1.107696533E-1,-3.484454041E0,1.309479565E1
8.980360583E0,1.327095291E1,-3.459306335E-1,-3.246748352E0,1.366671994E1
8.990382583E0,1.315344727E1,-3.625460815E-1,-2.883902893E0,1.347076503E1
9.000403583E0,1.223001755E1,-3.284170532E-1,-1.888023834E0,1.237924961E1
9.010424583E0,1.092353439E1,-3.028202820E-1,-8.140072632E-1,1.095800673E1
9.020446583E0,9.750723267E0,-8.068222046E-2,2.293231201E-1,9.753753274E0
9.030467583E0,8.756490784E0,3.962260437E-1,1.178798676E0,8.844359346E0
9.040488583E0,8.068671112E0,1.021775208E0,2.415227509E0,8.484150046E0
9.050510583E0,7.804021454E0,1.489402771E0,3.491788788E0,8.678344335E0
9.060531583E0,7.848479004E0,1.646126862E0,3.722908173E0,8.841289588E0
9.070552583E0,7.902067566E0,1.696871338E0,3.922443237E0,8.983741153E0
9.080574583E0,7.963439941E0,1.585353241E0,3.653452606E0,8.903787764E0
9.090595583E0,8.024962006E0,1.145867157E0,3.032992859E0,8.655176048E0
9.100616583E0,8.095615082E0,8.059240723E-1,2.415975952E0,8.486780129E0
9.110638583E0,8.204887848E0,7.427554321E-1,2.069895630E0,8.494488693E0
9.120659583E0,8.318800964E0,8.045768738E-1,1.958227844E0,8.583964685E0
9.130680583E0,8.445737000E0,9.017248535E-1,1.914369049E0,8.706801366E0
9.140702583E0,8.612041168E0,8.903485107E-1,1.799707489E0,8.843015357E0
9.150723583E0,8.766370239E0,7.747888184E-1,1.540746002E0,8.934396629E0
9.160744583E0,8.847202148E0,6.089337158E-1,1.215622101E0,8.951062686E0
9.170766583E0,8.884774017E0,4.655319214E-1,9.768685913E-1,8.950430244E0
9.180787583E0,8.853938141E0,3.954776001E-1,8.550219727E-1,8.903914067E0
9.190809583E0,8.754844208E0,3.806584167E-1,8.578660583E-1,8.805006082E0
9.200830583E0,8.633446655E0,3.743714905E-1,9.351054382E-1,8.692006520E0
9.210851583E0,8.615334320E0,4.116439819E-1,1.063089294E0,8.690431236E0
9.220873583E0,8.726253662E0,4.855902100E-1,1.264869690E0,8.830809485E0
9.230894583E0,8.917855225E0,5.625302124E-1,1.626517639E0,9.082408363E0
9.240915583E0,9.178313599E0,5.897735596E-1,2.018851776E0,9.416211333E0
9.250937583E0,9.523944855E0,5.252577209E-1,2.446063385E0,9.847062880E0
9.260958583E0,9.882299652E0,3.191363525E-1,2.850073242E0,1.029002487E1
9.270979583E0,1.023601410E1,8.921447754E-2,3.360362091E0,1.077385619E1
9.281001583E0,1.059481796E1,6.047424316E-2,3.961661682E0,1.131143616E1
9.291022583E0,1.081246536E1,4.664300537E-1,4.333638153E0,1.165793223E1
9.301043583E0,1.090587112E1,1.263522491E0,4.246219940E0,1.177135922E1
9.311065583E0,1.102202957E1,2.120640106E0,3.714076538E0,1.182271605E1
9.321086583E0,1.112336884E1,2.742746429E0,2.917732544E0,1.182223141E1
9.331107583E0,1.128503265E1,2.983146515E0,2.151176605E0,1.186923274E1
9.341129583E0,1.161105469E1,2.540666656E0,1.837578735E0,1.202698107E1
9.351150583E0,1.204964264E1,1.522933044E0,2.236948242E0,1.234978341E1
9.361174917E0,1.267908371E1,5.954617310E-1,2.967429199E0,1.303531259E1
9.371196917E0,1.367720810E1,-1.377136230E-2,3.290307770E0,1.406742109E1
9.381217917E0,1.500824020E1,-1.448986816E-1,3.032693481E0,1.531226631E1
9.391239917E0,1.646126862E1,6.062393188E-2,2.298919373E0,1.662113323E1
9.401260917E0,1.776176422E1,3.855981445E-1,1.295406189E0,1.781311403E1
9.411281917E0,1.832549194E1,7.722441101E-1,8.397537231E-2,1.834194831E1
9.421303917E0,1.703981552E1,1.089434509E0,-1.471589813E0,1.713790411E1
9.431324917E0,1.411130539E1,9.677375793E-1,-2.662662964E0,1.439288817E1
9.441345917E0,1.108669510E1,7.021897888E-1,-2.925516357E0,1.148766837E1
9.451367917E0,8.738977203E0,4.656816101E-1,-2.822081451E0,9.195146853E0
9.461388917E0,7.119494934E0,5.134323120E-2,-2.789149933E0,7.646515650E0
9.471409917E0,6.139183502E0,-4.960684204E-1,-2.862796783E0,6.791999954E0
9.481431917E0,5.518873444E0,-1.223405914E0,-2.979553986E0,6.390025671E0
9.491452917E0,5.063220978E0,-2.008972321E0,-3.086880798E0,6.261070956E0
9.501473917E0,4.865631866E0,-2.647694092E0,-3.290307770E0,6.442886208E0
9.511495917E0,4.797972565E0,-3.191812592E0,-3.307521973E0,6.644389359E0
9.521516917E0,4.883594513E0,-3.670966187E0,-3.034938812E0,6.821755031E0
9.531537917E0,5.201982422E0,-4.071084137E0,-2.743045807E0,7.152527348E0
9.541559917E0,5.721701660E0,-4.123026123E0,-2.235301666E0,7.398228696E0
9.551580917E0,6.311475220E0,-3.730691986E0,-1.693428497E0,7.524658279E0
9.561601917E0,6.964716797E0,-3.047662354E0,-1.737886047E0,7.798446884E0
9.571623917E0,7.854616241E0,-2.479593658E0,-2.433190155E0,8.588585177E0
9.581644917E0,8.805588684E0,-1.932631073E0,-3.492537231E0,9.668054161E0
9.591666917E0,9.682614899E0,-1.285676422E0,-4.377796326E0,1.070378885E1
9.601687917E0,1.045231430E1,-6.638694763E-1,-4.764891357E0,1.150633680E1
9.611708917E0,1.092997101E1,-3.588038635E-1,-4.330494690E0,1.176206575E1
9.621730917E0,1.093880264E1,-4.993615723E-1,-3.280727692E0,1.143109529E1
9.631751917E0,1.056083862E1,-9.764195251E-1,-2.427951050E0,1.088024144E1
9.641772917E0,1.010488678E1,-1.348994751E0,-1.921404419E0,1.037402133E1
9.651794917E0,9.872719574E0,-1.310973816E0,-1.635049896E0,1.009270193E1
9.661815917E0,1.243748611E1,2.372416534E0,-9.554631042E-1,1.269772936E1
9.671836917E0,1.166284698E1,2.606380005E0,-2.238145752E0,1.215831045E1
9.681858917E0,7.679330750E0,-2.335443420E0,-2.167193298E0,8.314032928E0
9.691879917E0,8.133336639E0,-1.294508057E0,4.487667847E-1,8.247927475E0
9.701900917E0,6.728507996E0,-2.646646271E0,1.199006653E0,7.329063602E0
9.711922917E0,6.126459961E0,-3.030897217E0,3.373834076E0,7.622506541E0
9.721943917E0,5.767356720E0,-3.169508972E0,4.543202362E0,7.996804259E0
9.731964917E0,5.676345978E0,-3.150348816E0,4.551884308E0,7.928761068E0
9.741986917E0,5.735323334E0,-3.174448700E0,4.361929321E0,7.873848214E0
9.752007917E0,6.019881592E0,-3.315305786E0,4.075874176E0,7.990180044E0
9.762029917E0,6.530918884E0,-3.276087341E0,3.656296692E0,8.170321612E0
9.772050917E0,6.889123993E0,-3.093167725E0,3.053500214E0,8.145647888E0
9.782071917E0,7.311395874E0,-3.099604340E0,2.489772491E0,8.322440973E0
9.792093917E0,7.836653595E0,-3.015179901E0,1.992805939E0,8.629931918E0
9.802114917E0,8.345894623E0,-2.717149658E0,1.663939819E0,8.933395493E0
9.812135917E0,8.826545105E0,-2.227218475E0,1.428329773E0,9.214582279E0
9.822157917E0,9.273665314E0,-1.588945770E0,1.396146698E0,9.511826460E0
9.832178917E0,9.575138397E0,-9.153465271E-1,1.731748810E0,9.773437907E0
9.842199917E0,9.868378601E0,-2.601589966E-1,2.046095123E0,1.008162111E1
9.852221917E0,1.026520340E1,3.359014893E-1,2.248324585E0,1.051390480E1
9.862242917E0,1.063268921E1,7.126679993E-1,2.388582916E0,1.092095709E1
9.872263917E0,1.099912720E1,7.560777283E-1,2.412982178E0,1.128605049E1
9.882285917E0,1.147977768E1,4.284091187E-1,2.334395599E0,1.172255231E1
9.892306917E0,1.187001617E1,-4.017645264E-1,1.978136444E0,1.204042036E1
9.902327917E0,1.187645279E1,-1.313668213E0,1.672472076E0,1.206536439E1
9.912349917E0,1.165042282E1,-1.712888031E0,1.884281616E0,1.192547083E1
9.922370917E0,1.124790985E1,-1.796863403E0,2.619702301E0,1.168790119E1
9.932391917E0,1.089584198E1,-1.855391693E0,3.368295593E0,1.155453443E1
9.942413917E0,1.070424042E1,-1.849254456E0,3.896547089E0,1.154051923E1
9.952434917E0,1.075468552E1,-1.641037445E0,4.263883209E0,1.168490327E1
9.962455917E0,1.118563934E1,-1.329834595E0,4.431085510E0,1.210460682E1
9.972477917E0,1.183169586E1,-1.145717468E0,4.264631653E0,1.262888667E1
9.982498917E0,1.258642639E1,-1.193318481E0,3.794010315E0,1.319987320E1
9.992520917E0,1.346045883E1,-1.376836853E0,3.254681854E0,1.391662982E1
1.000254192E1,1.439197174E1,-1.507365417E0,2.800825653E0,1.473925457E1
1.001256292E1,1.517828659E1,-1.526974640E0,2.143542480E0,1.540476581E1
1.002258492E1,1.557436295E1,-1.472038879E0,1.092428284E0,1.568187104E1
1.003260592E1,1.539623337E1,-1.427132263E0,-1.459465027E-1,1.546292368E1
1.004262692E1,1.459075836E1,-1.370699615E0,-1.190773773E0,1.470329858E1
1.005264892E1,1.336645432E1,-1.251248016E0,-1.833088074E0,1.354946251E1
1.006266992E1,1.224184296E1,-1.208586731E0,-2.188598785E0,1.249453342E1
1.007269092E1,1.107816284E1,-1.243464203E0,-2.493065643E0,1.142310253E1
1.008271292E1,9.689500580E0,-1.179696808E0,-3.084635468E0,1.023684922E1
1.009273392E1,8.313262482E0,-6.397695923E-1,-3.844605103E0,9.181537269E0
1.010275492E1,7.122488708E0,1.357676697E-1,-4.365821228E0,8.355158482E0
1.011277692E1,6.098617859E0,8.436456299E-1,-4.826712799E0,7.823172897E0
1.012279792E1,5.249284058E0,1.366059265E0,-5.132975922E0,7.467833879E0
1.013281892E1,4.677922211E0,1.656006317E0,-5.309458923E0,7.267438833E0
1.014284092E1,4.343218231E0,1.745071106E0,-5.318589935E0,7.084928840E0
1.015286192E1,4.206402740E0,1.550775146E0,-5.288203125E0,6.932807502E0
1.016288292E1,4.437222748E0,9.768685913E-1,-5.255271606E0,6.947020773E0
1.017290492E1,5.105582886E0,4.328997803E-1,-5.281467133E0,7.358551073E0
1.018292592E1,6.177952881E0,2.029779053E-1,-5.134921875E0,8.035902220E0
1.019294692E1,7.464826813E0,1.945953369E-1,-4.691693573E0,8.818928238E0
1.020296892E1,8.678353271E0,2.239343262E-1,-4.220473480E0,9.652790192E0
1.021298992E1,9.640103302E0,2.730322266E-1,-3.950884094E0,1.042188195E1
1.022301092E1,1.032852173E1,4.150868225E-1,-3.701502686E0,1.097960747E1
1.023303292E1,1.078761703E1,5.581892395E-1,-3.261567535E0,1.128370858E1
1.024305392E1,1.091215805E1,6.402186584E-1,-2.737956390E0,1.126860588E1
1.025307592E1,1.066322571E1,6.816824341E-1,-2.245929565E0,1.091848309E1
1.026309692E1,1.023855881E1,6.417155457E-1,-1.655257874E0,1.039133119E1
1.027311792E1,9.879455566E0,6.213578796E-1,-8.957373047E-1,9.939420165E0
1.028313992E1,9.669442291E0,6.800358582E-1,-1.041833496E-1,9.693885555E0
1.029316092E1,9.495354309E0,7.797285461E-1,5.834866333E-1,9.545165620E0
1.030318192E1,9.302106171E0,8.857081604E-1,1.407373352E0,9.449569192E0
1.031320392E1,9.119934998E0,9.891430664E-1,2.712060242E0,9.565923328E0
1.032322492E1,8.913514252E0,8.836125183E-1,3.407364349E0,9.583404364E0
1.033324592E1,8.646918640E0,6.185137939E-1,3.679797821E0,9.417678763E0
1.034326792E1,8.345894623E0,3.653901672E-1,4.146676941E0,9.326435368E0
1.035328892E1,8.071964264E0,1.914518738E-1,4.424199829E0,9.206888998E0
1.036330671E1,7.788603516E0,1.881587219E-1,4.336182861E0,8.916290161E0
1.037332871E1,7.684569855E0,3.603007507E-1,4.117487640E0,8.725602269E0
1.038334971E1,7.891140289E0,6.319857788E-1,3.839665375E0,8.798439139E0
1.039337071E1,8.165819092E0,8.414002991E-1,3.392994232E0,8.882621559E0
1.040339271E1,8.370593262E0,9.171427917E-1,2.876418457E0,8.898413656E0
1.041341371E1,8.554111633E0,9.054670715E-1,2.365530853E0,8.921234930E0
1.042343471E1,8.717272339E0,8.876541138E-1,1.972597961E0,8.981642922E0
1.043345671E1,8.934171295E0,9.117539978E-1,1.684447174E0,9.137180876E0
1.044347771E1,9.201814728E0,9.732760620E-1,1.465901642E0,9.368539278E0
1.045349871E1,9.439520416E0,1.084045715E0,1.324595490E0,9.593448494E0
1.046352071E1,9.603429565E0,1.199006653E0,1.255439301E0,9.759078041E0
1.047354171E1,9.792336731E0,1.337618408E0,1.286574554E0,9.966662217E0
1.048356371E1,1.002659958E1,1.520538025E0,1.308878174E0,1.022535560E1
1.049358471E1,1.021820114E1,1.725611572E0,1.147813110E0,1.042625747E1
1.050360571E1,1.031490005E1,1.826352081E0,6.761439514E-1,1.049713750E1
1.051362771E1,1.038330780E1,1.519190826E0,8.696914673E-2,1.049421675E1
1.052364871E1,1.069660629E1,6.735992432E-1,5.852828979E-2,1.071795445E1
1.053366971E1,1.111992599E1,-3.562591553E-2,7.271878052E-1,1.114373481E1
1.054369171E1,1.135778137E1,-2.080673218E-1,1.508862305E0,1.145945702E1
1.055371271E1,1.138637192E1,-2.993774414E-3,2.135159912E0,1.158483415E1
1.056373371E1,1.129745682E1,2.447410583E-1,2.537523193E0,1.158151340E1
1.057375571E1,1.126033401E1,3.297642517E-1,2.830314331E0,1.161527209E1
1.058377671E1,1.125389740E1,2.392025757E-1,3.201242981E0,1.170279373E1
1.059379771E1,1.133847153E1,9.175918579E-2,3.869902496E0,1.198104760E1
1.060381971E1,1.154204819E1,8.083190918E-2,4.745132446E0,1.247965112E1
1.061384071E1,1.208975922E1,2.049238586E-1,5.422922974E0,1.325188157E1
1.062386171E1,1.313234116E1,3.824546814E-1,5.457052002E0,1.422617561E1
1.063388371E1,1.425934753E1,5.950126648E-1,4.478686523E0,1.495799670E1
1.064390471E1,1.517634064E1,8.041278076E-1,3.003803558E0,1.549163557E1
1.065392571E1,1.585652618E1,9.737251282E-1,1.598675537E0,1.596663166E1
1.066394771E1,1.557451263E1,1.073417816E0,1.013392639E-1,1.561178847E1
1.067396871E1,1.404933426E1,1.011446686E0,-1.361568604E0,1.415134928E1
1.068398971E1,1.210996719E1,8.991801453E-1,-2.017205200E0,1.230970947E1
1.069401171E1,1.021131546E1,8.782237244E-1,-2.105820923E0,1.046311245E1
1.070403271E1,8.581354980E0,7.420069885E-1,-2.256557465E0,8.904059707E0
1.071405371E1,7.413782959E0,2.927911377E-1,-2.740201721E0,7.909400096E0
1.072407571E1,6.732549591E0,-3.929328918E-1,-3.403622131E0,7.554221592E0
1.073409671E1,6.450835419E0,-1.246607666E0,-4.120780792E0,7.755523361E0
1.074411771E1,6.364315338E0,-2.125729523E0,-4.707859955E0,8.196778701E0
1.075413971E1,6.392157440E0,-2.878364410E0,-4.777614899E0,8.483528897E0
1.076416071E1,6.598129120E0,-3.413800964E0,-4.312831421E0,8.590102431E0
1.077418271E1,6.885681152E0,-3.772305450E0,-3.345692596E0,8.534433332E0
1.078420371E1,7.015610962E0,-3.970493317E0,-2.395468597E0,8.409630441E0
1.079422471E1,7.079677734E0,-3.688779144E0,-1.812431030E0,8.186197813E0
1.080424671E1,7.307953033E0,-2.760858765E0,-1.583556976E0,7.970957995E0
1.081426771E1,7.657925262E0,-1.750908966E0,-1.708996124E0,8.039289103E0
1.082428871E1,8.145012360E0,-1.087338867E0,-2.372416534E0,8.552887955E0
1.083431071E1,8.650660858E0,-5.255570984E-1,-3.260669403E0,9.259703478E0
1.084433171E1,9.103918304E0,-3.008743286E-2,-3.902235260E0,9.905032750E0
1.085435271E1,9.482181702E0,3.638932800E-1,-4.020339661E0,1.030569353E1
1.086437471E1,9.741292877E0,3.643423462E-1,-3.430566101E0,1.033413354E1
1.087439571E1,9.904603271E0,6.586303711E-3,-2.531086578E0,1.022289629E1
1.088441671E1,9.853709106E0,-4.593946838E-1,-1.607207794E0,9.994485656E0
1.089443871E1,9.546697540E0,-7.933502197E-1,-8.164022827E-1,9.614330511E0
1.090445971E1,9.129066010E0,-1.012494507E0,-3.338058472E-1,9.191105357E0
1.091448071E1,8.821755066E0,-1.123413849E0,-2.549198914E-1,8.896651351E0
1.092450271E1,8.852590942E0,-1.002764740E0,-3.607498169E-1,8.916504020E0
1.093452371E1,9.261690216E0,-6.506968689E-1,-2.582130432E-1,9.288109929E0
1.094454471E1,1.094972992E1,1.362766113E0,6.827302551E-1,1.105530811E1
1.095456671E1,1.027164001E1,1.076261902E0,1.079555054E0,1.038414019E1
1.096458771E1,7.497758331E0,-2.442919922E0,2.295177155E0,8.212921277E0
1.097460871E1,7.213499451E0,-2.631228333E0,3.521127777E0,8.447264509E0
1.098463071E1,6.667434998E0,-2.938389587E0,3.535048828E0,8.098480909E0
1.099465171E1,6.335874481E0,-3.144810333E0,3.151696014E0,7.743792691E0
1.100467371E1,6.413263550E0,-3.205883331E0,2.572250977E0,7.617355997E0
1.101469471E1,6.728957062E0,-3.095263367E0,2.031725006E0,7.680327138E0
1.102471571E1,7.223079529E0,-2.736309814E0,1.728605347E0,7.915070797E0
1.103473771E1,7.636669464E0,-2.580483856E0,1.507365417E0,8.200595584E0
1.104475871E1,8.002209320E0,-2.467618561E0,1.260678406E0,8.468400404E0
1.105477971E1,8.410410461E0,-2.242037659E0,1.057251434E0,8.768096577E0
1.106480171E1,8.830287323E0,-1.919159088E0,8.904981995E-1,9.080205551E0
1.107482271E1,9.232650604E0,-1.517544250E0,7.628137207E-1,9.387580226E0
1.108484371E1,9.560169525E0,-1.033151550E0,8.321195984E-1,9.651770123E0
1.109486571E1,9.817185059E0,-4.587959290E-1,1.013542328E0,9.880024506E0
1.110488671E1,1.000654129E1,1.854643250E-1,1.236728210E0,1.008438210E1
1.111490771E1,1.017089951E1,7.758366394E-1,1.763632507E0,1.035178820E1
1.112492971E1,1.041279648E1,1.206790466E0,2.492317200E0,1.077470736E1
1.113495071E1,1.059900925E1,1.272354126E0,3.415597229E0,1.120821959E1
1.114497171E1,1.068343369E1,8.158035278E-1,4.363725586E0,1.156907048E1
1.115499371E1,1.061337936E1,-2.978805542E-2,4.904101868E0,1.169166045E1
1.116501471E1,1.055694672E1,-9.452842712E-1,4.711302795E0,1.159909739E1
1.117503571E1,1.065439407E1,-1.633553009E0,4.113895111E0,1.153727617E1
1.118505771E1,1.088611221E1,-2.048639832E0,3.408711548E0,1.158980926E1
1.119507871E1,1.120749390E1,-2.315834198E0,2.884202271E0,1.180210279E1
1.120509971E1,1.159039764E1,-2.316732330E0,2.456092529E0,1.207215626E1
1.121512171E1,1.183483932E1,-2.097737732E0,2.156864777E0,1.221130587E1
1.122514271E1,1.162587387E1,-1.776655426E0,2.204166412E0,1.196560894E1
1.123516371E1,1.112291977E1,-1.221609650E0,2.608625336E0,1.148984771E1
1.124518571E1,1.093281509E1,-5.125341797E-1,3.191064148E0,1.140052751E1
1.125520671E1,1.133457962E1,-9.565109253E-2,3.481310577E0,1.185754476E1
1.126522771E1,1.207044937E1,-1.534309387E-1,3.227887573E0,1.249554110E1
1.127524971E1,1.296109726E1,-5.228627014E-1,2.675985260E0,1.324478481E1
1.128527071E1,1.393781616E1,-1.058149567E0,2.114502869E0,1.413695590E1
1.129529271E1,1.481424362E1,-1.590891724E0,1.537752228E0,1.497856577E1
1.130531371E1,1.535057831E1,-1.896406403E0,9.156459045E-1,1.549435443E1
1.131533471E1,1.531195862E1,-2.001637573E0,3.233276367E-2,1.544226910E1
1.132535671E1,1.443119019E1,-1.995949402E0,-8.800199890E-1,1.459511903E1
1.133537771E1,1.294882278E1,-1.968107300E0,-1.437311096E0,1.317616488E1
1.134539871E1,1.146480881E1,-2.013013916E0,-1.509760437E0,1.173769324E1
1.135542667E1,1.030172745E1,-2.088457031E0,-1.382674713E0,1.060184090E1
1.136544767E1,9.171427917E0,-2.151625671E0,-1.417252808E0,9.526446798E0
1.137546867E1,7.969427490E0,-2.043101349E0,-1.894759827E0,8.442520503E0
1.138549067E1,7.050787811E0,-1.413211212E0,-2.969375153E0,7.779971946E0
1.139551167E1,6.361171875E0,-2.971321106E-1,-4.113296356E0,7.581029088E0
1.140553267E1,5.799539795E0,8.858578491E-1,-4.823120270E0,7.594859781E0
1.141555467E1,5.437742157E0,1.941462708E0,-5.340743866E0,7.865231227E0
1.142557567E1,5.200485535E0,2.707569580E0,-5.692063293E0,8.171631867E0
1.143559667E1,5.063969421E0,3.099304962E0,-5.699697418E0,8.230190047E0
1.144561867E1,5.037624207E0,3.069965973E0,-5.346432037E0,7.961575488E0
1.145563967E1,5.398074646E0,2.656525726E0,-5.006638641E0,7.827053680E0
1.146566067E1,6.223757629E0,2.029629364E0,-4.931794281E0,8.196166739E0
1.147568267E1,7.324867859E0,1.562750244E0,-4.931794281E0,8.967634711E0
1.148570367E1,8.604706421E0,1.237776031E0,-4.563260651E0,9.818167337E0
1.149572467E1,9.807006226E0,8.473878479E-1,-3.996838531E0,1.062403669E1
1.150574667E1,1.072190369E1,4.700225830E-1,-3.285517731E0,1.122384812E1
1.151576767E1,1.120614670E1,2.848576355E-1,-2.543361053E0,1.149467499E1
1.152578867E1,1.122006775E1,3.643423462E-1,-1.818717957E0,1.137235247E1
1.153581067E1,1.077818665E1,5.267546082E-1,-1.410217438E0,1.088280713E1
1.154583167E1,1.008108627E1,4.255650330E-1,-1.223106537E0,1.016392619E1
1.155585267E1,9.596992950E0,1.125659180E-1,-5.742059326E-1,9.614814467E0
1.156587467E1,9.446106720E0,-1.410067749E-1,2.052232361E-1,9.449387898E0
1.157589567E1,9.412576447E0,-1.910028076E-1,8.113128662E-1,9.449407706E0
1.158591767E1,9.409732361E0,1.856140137E-2,1.269210663E0,9.494961998E0
1.159593867E1,9.372609558E0,3.712280273E-1,1.748364258E0,9.541509197E0
1.160595967E1,9.305249634E0,7.445516968E-1,2.165247345E0,9.582813994E0
1.161598167E1,9.091194763E0,9.595046997E-1,2.246079254E0,9.413572303E0
1.162600267E1,8.727451172E0,1.001866608E0,2.277962952E0,9.075310235E0
1.163602367E1,8.251590729E0,8.779243469E-1,2.290536804E0,8.608487647E0
1.164604567E1,7.859106903E0,6.872209167E-1,2.329156494E0,8.225740324E0
1.165606667E1,7.801177368E0,5.246589661E-1,2.598296814E0,8.239222153E0
1.166608767E1,7.990683289E0,5.022056580E-1,2.831661530E0,8.492439989E0
1.167610967E1,8.248746643E0,6.310876465E-1,2.784808960E0,8.728989274E0
1.168613067E1,8.464448090E0,7.764353943E-1,2.522554321E0,8.866398011E0
1.169615167E1,8.592731323E0,8.268804932E-1,2.172282715E0,8.901549030E0
1.170617367E1,8.665779419E0,8.114625549E-1,1.857337646E0,8.899657721E0
1.171619467E1,8.746012573E0,7.831713867E-1,1.702110443E0,8.944454892E0
1.172621567E1,8.914861450E0,7.487429810E-1,1.651515656E0,9.097410329E0
1.173623767E1,9.142687683E0,7.385641479E-1,1.688339081E0,9.326559061E0
1.174625867E1,9.349856873E0,8.101153564E-1,1.770518188E0,9.550436905E0
1.175627967E1,9.519903259E0,9.671388245E-1,1.877695312E0,9.751392478E0
1.176630167E1,9.654473419E0,1.200204163E0,1.929786987E0,9.918337807E0
1.177632267E1,9.762249298E0,1.474882965E0,1.908980255E0,1.005589363E1
1.178634367E1,9.856403503E0,1.672921143E0,1.761536865E0,1.015137268E1
1.179636567E1,9.892029419E0,1.742825775E0,1.489702148E0,1.015425528E1
1.180638667E1,9.932595062E0,1.676214294E0,1.255439301E0,1.015097369E1
1.181640767E1,1.000624191E1,1.535506897E0,1.186432800E0,1.019265821E1
1.182642967E1,1.009036697E1,1.373693390E0,1.309327240E0,1.026727213E1
1.183645067E1,1.021341110E1,1.229992218E0,1.539698181E0,1.040179396E1
1.184647167E1,1.040276733E1,1.198707275E0,1.760638733E0,1.061858353E1
1.185649367E1,1.067924240E1,1.161135406E0,1.945055237E0,1.091685365E1
1.186651467E1,1.099673218E1,1.025367737E0,2.173779602E0,1.125632335E1
1.187653567E1,1.130449219E1,8.419990540E-1,2.505340118E0,1.160935981E1
1.188655767E1,1.152139114E1,6.691085815E-1,2.948269043E0,1.191144200E1
1.189657867E1,1.165925446E1,4.972659302E-1,3.457809448E0,1.217135712E1
1.190660067E1,1.207613754E1,2.297721863E-1,3.817661133E0,1.266729765E1
1.191662167E1,1.284344193E1,8.981323242E-3,4.076772308E0,1.347494540E1
1.192664267E1,1.399050659E1,-8.023315430E-2,4.049678650E0,1.456504752E1
1.193666467E1,1.540132278E1,3.218307495E-2,3.541934509E0,1.580338822E1
1.194668567E1,1.660496979E1,3.451821899E-1,2.543361053E0,1.680216825E1
1.195670667E1,1.689506653E1,8.939410400E-1,1.189127197E0,1.696043711E1
1.196672867E1,1.551763092E1,1.405277710E0,-4.463717651E-1,1.558752458E1
1.197674967E1,1.326182190E1,1.346749420E0,-1.584006042E0,1.342381202E1
1.198677067E1,1.108804230E1,1.161135406E0,-1.924996948E0,1.131364356E1
1.199679267E1,9.133107605E0,9.816586304E-1,-2.073637848E0,9.416861585E0
1.200681367E1,7.652386780E0,5.291496277E-1,-2.315534821E0,8.012535445E0
1.201683467E1,6.792275391E0,-1.730401611E-1,-2.655328217E0,7.294910268E0
1.202685667E1,6.402785339E0,-9.927355957E-1,-3.069516907E0,7.169596788E0
1.203687767E1,6.335724792E0,-1.713935852E0,-3.388503571E0,7.386537836E0
1.204689867E1,6.409521332E0,-2.201322327E0,-3.488795013E0,7.622301118E0
1.205692067E1,6.516698456E0,-2.542462921E0,-3.262315979E0,7.718431318E0
1.206694167E1,6.643634491E0,-2.784808960E0,-2.842888184E0,7.744356230E0
1.207696267E1,6.783144379E0,-2.937491455E0,-2.453248444E0,7.788345886E0
1.208698467E1,6.906338196E0,-2.883154449E0,-2.334096222E0,7.839521161E0
1.209700567E1,7.038513336E0,-2.393223267E0,-2.407743073E0,7.814436275E0
1.210702667E1,7.447762299E0,-1.571432190E0,-2.541714478E0,8.024890957E0
1.211704867E1,8.126001892E0,-9.960287476E-1,-2.961142273E0,8.705879828E0
1.212706967E1,8.762478333E0,-6.345304871E-1,-3.708538055E0,9.536084625E0
1.213709067E1,9.317973175E0,-4.258644104E-1,-4.209695892E0,1.023364667E1
1.214711267E1,9.750872955E0,-2.936892700E-1,-3.912414093E0,1.051060230E1
1.215713367E1,9.885742493E0,-2.839595032E-1,-3.123105469E0,1.037122584E1
1.216715467E1,9.847122803E0,-4.608915710E-1,-2.269879761E0,1.011585897E1
1.217717667E1,9.757159882E0,-7.182064819E-1,-1.612297211E0,9.915517727E0
1.218719767E1,9.511670380E0,-8.652008057E-1,-1.372645569E0,9.649072583E0
1.219721967E1,9.284891968E0,-9.857002258E-1,-1.387165375E0,9.439547212E0
1.220724067E1,9.312285004E0,-9.484277344E-1,-1.276096344E0,9.447041285E0
1.221726167E1,9.545200653E0,-7.068301392E-1,-7.131170654E-1,9.597864362E0
1.222728367E1,9.767488403E0,-4.767585754E-1,-3.068618774E-2,9.779165102E0
1.223730467E1,9.689051514E0,-4.453239441E-1,5.798941040E-1,9.716599705E0
1.224732567E1,9.405690765E0,-4.022135925E-1,1.389859772E0,9.516328322E0
1.225734767E1,8.986412659E0,-3.402424622E-1,2.089355164E0,9.232376856E0
1.226736867E1,7.731422424E0,-1.395098877E0,2.711611176E0,8.311078675E0
1.227738967E1,6.648873596E0,-2.474354553E0,3.162473602E0,7.767315485E0
1.228741167E1,6.418203278E0,-2.646496582E0,3.209326172E0,7.648336548E0
1.229743267E1,6.368506622E0,-2.803220673E0,3.153791656E0,7.639523843E0
1.230745367E1,6.672524414E0,-3.075803833E0,2.676733704E0,7.819722156E0
1.231747567E1,7.332951050E0,-3.374283142E0,2.246228943E0,8.378753027E0
1.232749667E1,8.065527649E0,-3.302582245E0,1.844614105E0,8.908556950E0
1.233751767E1,8.537496185E0,-2.978057098E0,1.392554169E0,9.148599472E0
1.234753967E1,8.772357788E0,-2.736459503E0,1.102457428E0,9.255154464E0
1.235755554E1,8.836574249E0,-2.442470856E0,1.072220306E0,9.230404364E0
1.236757654E1,8.844358063E0,-2.025438080E0,1.152303772E0,9.146194451E0
1.237759854E1,8.906179504E0,-1.545386353E0,1.270557861E0,9.128119720E0
1.238761954E1,9.035061493E0,-1.008153534E0,1.423689423E0,9.201934650E0
1.239764054E1,9.198072510E0,-4.861889648E-1,1.609004059E0,9.350390990E0
1.240766254E1,9.467512207E0,3.637435913E-2,1.756297760E0,9.629106517E0
1.241768354E1,9.844278717E0,5.272036743E-1,1.941911774E0,1.004782506E1
1.242770454E1,1.009874954E1,7.388635254E-1,2.113904114E0,1.034404429E1
1.243772654E1,1.027598099E1,6.230044556E-1,2.344724121E0,1.055848716E1
1.244774754E1,1.056158707E1,1.948947144E-1,2.610571289E0,1.088118504E1
1.245776854E1,1.078836548E1,-4.674778748E-1,3.041375427E0,1.121861532E1
1.246779054E1,1.093027039E1,-9.693841553E-1,3.615132294E0,1.155334141E1
1.247781154E1,1.105391327E1,-1.026265869E0,4.009562073E0,1.180333886E1
1.248783254E1,1.110226273E1,-8.421487427E-1,3.816313934E0,1.177003416E1
1.249785454E1,1.109507767E1,-7.447013855E-1,3.446433105E0,1.164187398E1
1.250787554E1,1.117546051E1,-7.691006470E-1,3.316652985E0,1.168257765E1
1.251789754E1,1.117052078E1,-8.571176147E-1,3.267405396E0,1.167009525E1
1.252791854E1,1.109432922E1,-8.481362915E-1,3.076552277E0,1.154420417E1
1.253793954E1,1.127395569E1,-7.083270264E-1,2.978805542E0,1.168234080E1
1.254796154E1,1.173709259E1,-5.532495117E-1,2.925666046E0,1.210887895E1
1.255798254E1,1.237776031E1,-5.836363220E-1,2.646496582E0,1.267097178E1
1.256800354E1,1.310360092E1,-8.192463684E-1,2.280208282E0,1.332572218E1
1.257802554E1,1.389695114E1,-1.144370270E0,2.021695862E0,1.408978667E1
1.258804654E1,1.469598953E1,-1.461860046E0,1.674567719E0,1.486315310E1
1.259806754E1,1.520642807E1,-1.766027527E0,9.753717041E-1,1.533967594E1
1.260808954E1,1.517424500E1,-1.942959595E0,8.996292114E-2,1.529839523E1
1.261811054E1,1.441143127E1,-2.009571075E0,-8.141569519E-1,1.457362614E1
1.262813154E1,1.295855255E1,-2.024539948E0,-1.578018494E0,1.321033643E1
1.263815354E1,1.151450546E1,-1.983525238E0,-1.710493011E0,1.180864068E1
1.264817454E1,1.036893768E1,-1.904938660E0,-1.591340790E0,1.066189596E1
1.265819554E1,9.211544495E0,-1.855242004E0,-1.599873047E0,9.531740063E0
1.266821754E1,7.931256866E0,-1.827549591E0,-1.839225311E0,8.344310800E0
1.267823854E1,6.812782745E0,-1.528770905E0,-2.618804169E0,7.457163300E0
1.268825954E1,5.985453186E0,-7.631130981E-1,-3.603007507E0,7.027777354E0
1.269828154E1,5.433999939E0,2.224374390E-1,-4.389472046E0,6.988941164E0
1.270830254E1,5.106780396E0,1.178050232E0,-5.152884521E0,7.349777360E0
1.271832354E1,4.927902374E0,2.002685394E0,-5.783822479E0,7.857962399E0
1.272834554E1,4.891827393E0,2.542612610E0,-6.080655212E0,8.207875604E0
1.273836654E1,5.064568176E0,2.602039032E0,-6.172713776E0,8.397788595E0
1.274838754E1,5.711822205E0,1.923799438E0,-5.865552521E0,8.410150031E0
1.275840954E1,6.706803131E0,1.105900269E0,-5.301525421E0,8.620347756E0
1.276843054E1,7.937394104E0,5.743556213E-1,-4.697381744E0,9.241077036E0
1.277845154E1,9.304052124E0,8.756790161E-2,-4.037404175E0,1.014266664E1
1.278847354E1,1.058314224E1,-3.641926575E-1,-3.491938477E0,1.115029911E1
1.279849454E1,1.156659714E1,-6.442602539E-1,-3.248095551E0,1.203126616E1
1.280851554E1,1.223765167E1,-6.527925110E-1,-3.153641968E0,1.265431603E1
1.281853754E1,1.233255432E1,-3.954776001E-1,-2.546354828E0,1.259889763E1
1.282855854E1,1.167392395E1,-1.438508606E-1,-1.355581055E0,1.175324608E1
1.283858054E1,1.072414902E1,-5.733078003E-2,-2.850073242E-1,1.072808875E1
1.284860154E1,9.916129303E0,7.858657837E-2,4.547543335E-1,9.926862430E0
1.285862254E1,9.265582123E0,3.965254211E-1,1.114731903E0,9.340817507E0
1.286864454E1,8.844358063E0,8.966354370E-1,1.998344421E0,9.111531434E0
1.287866554E1,8.700956268E0,1.424138489E0,2.539618835E0,9.175209766E0
1.288868654E1,8.649613037E0,1.849553833E0,2.448009338E0,9.177657914E0
1.289870854E1,8.522976379E0,2.119891663E0,2.375260620E0,9.098182788E0
1.290872954E1,8.383616180E0,1.956581268E0,2.284848633E0,8.906950308E0
1.291875054E1,8.324489136E0,1.323098602E0,2.184257813E0,8.707392921E0
1.292877254E1,8.257278900E0,6.454577637E-1,2.160606995E0,8.559643284E0
1.293879354E1,8.050109711E0,3.365002441E-1,2.093097382E0,8.324575390E0
1.294881454E1,7.966134338E0,2.784210205E-1,2.171534271E0,8.261499601E0
1.295883654E1,8.106542358E0,3.757186890E-1,2.378254395E0,8.456552933E0
1.296885754E1,8.268056488E0,5.769003296E-1,2.416425018E0,8.633231258E0
1.297887854E1,8.490493927E0,6.526428223E-1,2.206411743E0,8.796742724E0
1.298890054E1,8.728798370E0,6.511459351E-1,1.834435272E0,8.943213337E0
1.299892154E1,8.888216858E0,6.518943787E-1,1.453477478E0,9.029837317E0
1.300894254E1,8.998238068E0,6.743476868E-1,1.191971283E0,9.101858528E0
1.301896454E1,9.040450287E0,7.072792053E-1,1.086141357E0,9.132890469E0
1.302898554E1,9.064999237E0,7.170089722E-1,1.140328674E0,9.164532859E0
1.303900654E1,9.077273712E0,7.214996338E-1,1.298100586E0,9.197963084E0
1.304902854E1,9.081464996E0,7.765850830E-1,1.503473511E0,9.237776977E0
1.305904954E1,9.099277954E0,8.848100281E-1,1.650767212E0,9.290036623E0
1.306907054E1,9.215586090E0,1.058299255E0,1.689536591E0,9.428762283E0
1.307909254E1,9.387578430E0,1.238823853E0,1.696571960E0,9.619754141E0
1.308911354E1,9.589358826E0,1.386716309E0,1.773362274E0,9.850055764E0
1.309913454E1,9.848170624E0,1.510508881E0,1.810485077E0,1.012649781E1
1.310915654E1,1.014260834E1,1.624571686E0,1.754800873E0,1.042070358E1
1.311917754E1,1.038869659E1,1.738484802E0,1.612147522E0,1.065581372E1
1.312919954E1,1.051129166E1,1.834135895E0,1.471140747E0,1.077105203E1
1.313922054E1,1.060394897E1,1.815724182E0,1.515448608E0,1.086449137E1
1.314924154E1,1.074555450E1,1.775607605E0,1.671573944E0,1.101879682E1
1.315926354E1,1.092143875E1,1.804796906E0,1.797013092E0,1.121447156E1
1.316928454E1,1.115091156E1,1.804198151E0,1.896406403E0,1.145400877E1
1.317930554E1,1.141166931E1,1.668580170E0,2.012265472E0,1.170724428E1
1.318932754E1,1.163335831E1,1.404978333E0,2.215991821E0,1.192558633E1
1.319934854E1,1.175086395E1,1.093326416E0,2.680026855E0,1.210209528E1
1.320936954E1,1.200802917E1,8.514294434E-1,3.222947845E0,1.246214627E1
1.321939154E1,1.261217285E1,7.352709961E-1,3.576213226E0,1.312999728E1
1.322941254E1,1.341764786E1,7.176077271E-1,3.634142761E0,1.391959872E1
1.323943354E1,1.431892365E1,7.391629028E-1,3.216211853E0,1.469428307E1
1.324945554E1,1.514355881E1,6.876699829E-1,2.415526886E0,1.535040825E1
1.325947654E1,1.533830383E1,4.899311829E-1,1.312171326E0,1.540212293E1
1.326949754E1,1.431727707E1,3.219804382E-1,-1.155596924E-1,1.432136335E1
1.327951954E1,1.263537460E1,2.456391907E-1,-1.145867157E0,1.268960368E1
1.328954054E1,1.102128113E1,2.676434326E-1,-1.427281952E0,1.111653743E1
1.329956154E1,9.602082367E0,2.659968567E-1,-1.611099701E0,9.739937492E0
1.330958354E1,8.378377075E0,-8.502319336E-2,-2.182611237E0,8.658419207E0
1.331960454E1,7.548652496E0,-8.155041504E-1,-2.935844879E0,8.140416862E0
1.332962554E1,7.128176880E0,-1.711690521E0,-3.541335754E0,8.141366531E0
1.333964754E1,7.099436646E0,-2.626288605E0,-4.003275146E0,8.563037102E0
1.334966854E1,7.293582916E0,-3.501368866E0,-4.122726746E0,9.080353050E0
1.335968954E1,7.588469696E0,-4.259093170E0,-3.959416351E0,9.560424928E0
1.336971154E1,7.714507599E0,-4.718637543E0,-3.490291901E0,9.693363983E0
1.337973254E1,7.693102112E0,-4.729115753E0,-3.035238190E0,9.526858180E0
1.338975354E1,7.655679932E0,-4.128265228E0,-2.584375763E0,9.073643540E0
1.339977554E1,7.692952423E0,-2.854863281E0,-2.013313293E0,8.448975781E0
1.340979654E1,8.136629791E0,-1.564396820E0,-2.093696136E0,8.546089473E0
1.341981754E1,8.924441528E0,-4.992118835E-1,-2.948269043E0,9.412075193E0
1.342983954E1,9.522897034E0,4.276606750E-1,-3.371439056E0,1.011113559E1
1.343986054E1,9.794881439E0,1.054107971E0,-3.560495911E0,1.047511227E1
1.344988254E1,9.729617157E0,9.773176575E-1,-3.759432220E0,1.047635101E1
1.345990354E1,9.329798584E0,1.260379028E-1,-3.526067505E0,9.974676898E0
1.346992454E1,8.899593201E0,-6.768923950E-1,-2.937192078E0,9.396171548E0
1.347994654E1,8.719367981E0,-9.726773071E-1,-2.289039917E0,9.067148552E0
1.348996754E1,8.846004639E0,-8.755293274E-1,-1.595532074E0,9.031282980E0
1.349998854E1,9.120384064E0,-6.328839111E-1,-1.208886108E0,9.221895312E0
1.351001054E1,1.065529221E1,1.252146149E0,-2.634521484E-1,1.073184649E1
1.352003154E1,1.067370392E1,1.671873322E0,-7.270381165E-1,1.082828242E1
1.353005254E1,7.867339783E0,-2.189646606E0,-5.257067871E-1,8.183272887E0
1.354007454E1,7.912545776E0,-2.015109558E0,1.901346130E0,8.383565131E0
1.355009554E1,7.135960693E0,-2.474504242E0,3.832480316E0,8.469534322E0
1.356011654E1,6.648274841E0,-2.874023438E0,3.690725098E0,8.129023363E0
1.357013854E1,6.381230164E0,-3.031795349E0,3.373534698E0,7.828960199E0
1.358015954E1,6.111640778E0,-3.245401154E0,3.172652435E0,7.612522914E0
1.359018054E1,5.962850189E0,-3.503464508E0,2.953957214E0,7.520352995E0
1.360020254E1,5.893843689E0,-3.603606262E0,2.963387604E0,7.516983279E0
1.361022354E1,6.199058990E0,-3.214265900E0,2.779420166E0,7.515651276E0
1.362024454E1,6.676116943E0,-3.073408813E0,2.360890503E0,7.719467802E0
1.363026654E1,7.258705444E0,-3.003354492E0,1.678759003E0,8.032880848E0
1.364028754E1,7.812553711E0,-2.853665771E0,9.505233765E-1,8.371552933E0
1.365030854E1,8.334817657E0,-2.507286072E0,5.300477600E-1,8.719897904E0
1.366033054E1,8.823701019E0,-1.917362823E0,4.339476013E-1,9.040038186E0
1.367035154E1,9.235794067E0,-1.170266418E0,4.773573303E-1,9.321871355E0
1.368037254E1,9.666298828E0,-3.132984924E-1,5.902226257E-1,9.689367974E0
1.369039454E1,1.006911118E1,5.504054260E-1,7.060816956E-1,1.010883264E1
1.370041554E1,1.041249710E1,1.382525024E0,9.144483948E-1,1.054360883E1
1.371043654E1,1.077219910E1,2.102527771E0,1.433718567E0,1.106871471E1
1.372045854E1,1.094972992E1,2.241588593E0,2.716850281E0,1.150228587E1
1.373047954E1,1.090033264E1,1.473086700E0,4.421355743E0,1.185477215E1
1.374050054E1,1.072893906E1,-1.059796143E-1,5.488187256E0,1.205162082E1
1.375052254E1,1.040037231E1,-1.743723907E0,5.159620514E0,1.174010226E1
1.376054354E1,1.026774811E1,-2.836152191E0,3.922293549E0,1.135142269E1
1.377056554E1,1.051159103E1,-3.517535248E0,2.651735687E0,1.139729365E1
1.378058654E1,1.099298996E1,-3.799848175E0,1.963616638E0,1.179578165E1
1.379060754E1,1.149684219E1,-3.641627197E0,2.016157379E0,1.222717137E1
1.380062954E1,1.170475983E1,-2.846480713E0,2.249671783E0,1.225417799E1
1.381065054E1,1.175819870E1,-1.869612122E0,2.384391632E0,1.214232307E1
1.382067154E1,1.201341797E1,-1.196012878E0,2.602488098E0,1.235012560E1
1.383069354E1,1.241832596E1,-8.482859802E-1,2.575843506E0,1.271099439E1
1.384071454E1,1.290795776E1,-7.611671448E-1,2.300565948E0,1.313344405E1
1.385073554E1,1.342303665E1,-7.951464844E-1,1.958976288E0,1.358851570E1
1.386075754E1,1.383782410E1,-9.551637268E-1,1.418600006E0,1.394310365E1
1.387077854E1,1.405771683E1,-1.197958832E0,7.168592834E-1,1.412686784E1
1.388079954E1,1.399858978E1,-1.460363159E0,-9.924362183E-2,1.407490766E1
1.389082154E1,1.355296646E1,-1.699715424E0,-9.586065674E-1,1.369273015E1
1.390084254E1,1.281230667E1,-1.729802856E0,-1.403182068E0,1.300447385E1
1.391086354E1,1.212493607E1,-1.638492737E0,-1.319955139E0,1.230613727E1
1.392088554E1,1.138771912E1,-1.639989624E0,-1.208586731E0,1.156850874E1
1.393090654E1,1.028256729E1,-1.606309662E0,-1.521436157E0,1.051789850E1
1.394092754E1,9.085805969E0,-1.174607391E0,-1.825154572E0,9.341453947E0
1.395094954E1,8.126750336E0,-3.348536682E-1,-1.859732666E0,8.343548621E0
1.396097054E1,7.364086304E0,6.902146912E-1,-1.764380951E0,7.603893973E0
1.397099154E1,6.740932159E0,1.691482544E0,-1.964365082E0,7.222188709E0
1.398101354E1,6.212980042E0,2.533481598E0,-2.670895844E0,7.221726567E0
1.399103454E1,5.785918121E0,3.046315155E0,-3.830085297E0,7.578023351E0
1.400105554E1,5.638774109E0,3.235671387E0,-4.985532532E0,8.192733207E0
1.401107754E1,5.799988861E0,3.142415314E0,-5.795947266E0,8.781096144E0
1.402109854E1,6.327940979E0,2.576891327E0,-6.211932220E0,9.234246469E0
1.403112054E1,7.237000580E0,1.681154022E0,-5.970933380E0,9.531657866E0
1.404114154E1,8.315358124E0,9.147477722E-1,-5.100044403E0,9.797570981E0
1.405116254E1,9.604776764E0,3.980223083E-1,-3.984114990E0,1.040592767E1
1.406118354E1,1.076516373E1,-9.624984741E-2,-3.273392944E0,1.125224935E1
1.407120554E1,1.151645142E1,-5.504054260E-1,-2.750829620E0,1.185321319E1
1.408122654E1,1.175236084E1,-8.605604553E-1,-1.925745392E0,1.194014426E1
1.409124854E1,1.123339005E1,-8.360115051E-1,-8.786727905E-1,1.129867395E1
1.410126954E1,1.018317398E1,-6.351292419E-1,2.829116821E-2,1.020300063E1
1.411129054E1,9.159153442E0,-3.989204407E-1,5.212161255E-1,9.182640990E0
1.412131254E1,8.461604004E0,-8.816665649E-2,7.435038757E-1,8.494663836E0
1.413133354E1,8.087681580E0,3.110531616E-1,9.240284729E-1,8.146236924E0
1.414135454E1,7.926317139E0,7.707472229E-1,1.064586182E0,8.034544069E0
1.415137654E1,8.073461151E0,1.164278870E0,1.307081909E0,8.261040090E0
1.416139754E1,8.457562408E0,1.323098602E0,1.535506897E0,8.697053135E0
1.417141854E1,8.902736664E0,1.256636810E0,1.603465576E0,9.132850488E0
1.418144054E1,9.211544495E0,8.934919739E-1,1.547481995E0,9.383260649E0
1.419146154E1,9.159901886E0,3.857478333E-1,1.384920044E0,9.272033622E0
1.420148254E1,8.818012848E0,5.298980713E-2,1.199755096E0,8.899414070E0
1.421150454E1,8.426876221E0,-5.089416504E-3,1.222807159E0,8.515135119E0
1.422152554E1,8.002059631E0,2.139051819E-1,1.361269226E0,8.119837909E0
1.423154654E1,7.702233124E0,4.977149963E-1,1.553170166E0,7.873020569E0
1.424156854E1,7.746690674E0,7.014413452E-1,1.587299194E0,7.938687240E0
1.425158954E1,8.046517181E0,7.294331360E-1,1.334774323E0,8.189025213E0
1.426161054E1,8.391100616E0,6.093827820E-1,9.120533752E-1,8.462491258E0
1.427163254E1,8.702902222E0,4.549040222E-1,5.550457764E-1,8.732440699E0
1.428165354E1,8.970545654E0,2.725831604E-1,3.251239014E-1,8.980573282E0
1.429167454E1,9.192534027E0,8.143066406E-2,2.290237427E-1,9.195747097E0
1.430169654E1,9.334289246E0,-4.056564331E-2,2.833607483E-1,9.338677348E0
1.431171754E1,9.351952515E0,-1.059796143E-1,5.403762817E-1,9.368151047E0
1.432173854E1,9.332343292E0,-1.462458801E-1,1.095721436E0,9.397586107E0
1.433176054E1,9.412576447E0,-1.939965820E-1,1.772015076E0,9.579888698E0
1.434178154E1,9.589807892E0,-1.981878662E-1,2.296674042E0,9.862981572E0
1.435180354E1,9.804461517E0,-1.613644409E-1,2.686014404E0,1.016701419E1
1.436182392E1,1.009395950E1,-2.395019531E-3,2.990331573E0,1.052758791E1
1.437184492E1,1.035381912E1,4.809498596E-1,3.077899475E0,1.081232391E1
1.438186692E1,1.054841446E1,1.269210663E0,2.877316589E0,1.100722009E1
1.439188792E1,1.070888077E1,2.076182556E0,2.463726654E0,1.118305014E1
1.440190892E1,1.082309326E1,2.728975067E0,1.787283325E0,1.130402735E1
1.441193092E1,1.107412125E1,3.045866089E0,1.043031006E0,1.153262222E1
1.442195192E1,1.157812317E1,2.920876007E0,5.297483826E-1,1.195261838E1
1.443197292E1,1.224827957E1,2.319127350E0,4.760101318E-1,1.247498656E1
1.444199492E1,1.300256104E1,1.599573669E0,9.945318604E-1,1.313827702E1
1.445201592E1,1.389769958E1,1.049018555E0,1.853146362E0,1.405989492E1
1.446203692E1,1.493055176E1,6.397695923E-1,2.447709961E0,1.514338024E1
1.447205892E1,1.607896362E1,4.161346436E-1,2.477198639E0,1.627399006E1
1.448207992E1,1.713082626E1,3.471281433E-1,1.939367065E0,1.724374817E1
1.449210092E1,1.757749741E1,3.206332397E-1,1.032702484E0,1.761072671E1
1.450212292E1,1.652548508E1,2.588117981E-1,-3.330574036E-1,1.653086712E1
1.451214392E1,1.405756714E1,4.670288086E-2,-1.570683746E0,1.414512009E1
1.452216492E1,1.160865967E1,-2.529739380E-1,-1.811233521E0,1.175183143E1
1.453218692E1,9.610464935E0,-5.041516113E-1,-1.689835968E0,9.770913505E0
1.454220792E1,8.078400879E0,-8.743318176E-1,-1.625918884E0,8.286653674E0
1.455222892E1,7.030430145E0,-1.392404480E0,-1.669627991E0,7.358899095E0
1.456225092E1,6.287824402E0,-1.972298584E0,-1.819017334E0,6.836338309E0
1.457227192E1,5.741161194E0,-2.439926147E0,-1.983375549E0,6.545834556E0
1.458229292E1,5.382207642E0,-2.780467987E0,-2.065554657E0,6.400443529E0
1.459231492E1,5.111271057E0,-3.044369202E0,-2.074685669E0,6.300602851E0
1.460233592E1,4.997208252E0,-3.222349091E0,-2.113904114E0,6.310642961E0
1.461235692E1,5.084476776E0,-3.269201660E0,-2.140698395E0,6.412657265E0
1.462237892E1,5.426665192E0,-3.372786255E0,-2.251468048E0,6.774473455E0
1.463239992E1,6.050567780E0,-3.348985748E0,-2.587519226E0,7.383788441E0
1.464242092E1,7.045548706E0,-3.118614807E0,-2.821782074E0,8.205362208E0
1.465244292E1,8.372838593E0,-2.897075500E0,-3.386258240E0,9.484946885E0
1.466246392E1,9.533824310E0,-2.530637512E0,-4.290827179E0,1.075681784E1
1.467248592E1,1.051862640E1,-1.767374725E0,-5.121449890E0,1.183192139E1
1.468250692E1,1.106858276E1,-7.346722412E-1,-5.262905731E0,1.227808798E1
1.469252792E1,1.094104797E1,6.047424316E-2,-4.775369568E0,1.193793711E1
1.470254992E1,1.038285873E1,1.270857239E-1,-3.922892303E0,1.109995452E1
1.471257092E1,9.779912567E0,-3.930825806E-1,-3.033741302E0,1.024718449E1
1.472259192E1,9.414223022E0,-7.729925537E-1,-2.233206024E0,9.706303197E0
1.473261392E1,9.357191620E0,-6.405180359E-1,-1.623224487E0,9.518516486E0
1.474263492E1,9.718689880E0,-9.310638428E-2,-1.273252258E0,9.802182058E0
1.475265592E1,1.077354630E1,1.177900543E0,-6.759942627E-1,1.085880830E1
1.476267792E1,1.204530167E1,3.411855011E0,1.169068909E-1,1.251973299E1
1.477269892E1,8.691226501E0,-9.960287476E-1,-5.099894714E-1,8.762966428E0
1.478271992E1,7.577991486E0,-2.486179962E0,2.160906372E0,8.262963277E0
1.479274192E1,7.186854858E0,-2.610870667E0,5.015470276E0,9.144532272E0
1.480276292E1,6.687792664E0,-2.866089935E0,4.696932678E0,8.660382140E0
1.481278392E1,6.130202179E0,-2.944227448E0,5.010231171E0,8.446908926E0
1.482280592E1,5.699996796E0,-2.951262817E0,5.168751526E0,8.241110849E0
1.483282692E1,5.617518311E0,-3.068918152E0,4.934039612E0,8.082049089E0
1.484284792E1,6.033802643E0,-2.981200562E0,4.721182251E0,8.220942341E0
1.485286992E1,6.668482819E0,-2.951262817E0,4.174369354E0,8.402617141E0
1.486289092E1,7.340884552E0,-2.987337799E0,3.599564667E0,8.704575746E0
1.487291192E1,8.015381927E0,-2.859653320E0,3.107687531E0,9.059894389E0
1.488293392E1,8.619824982E0,-2.531984711E0,2.625091095E0,9.359670536E0
1.489295492E1,9.102720795E0,-2.038460999E0,2.165546722E0,9.576243612E0
1.490297592E1,9.462722168E0,-1.472937012E0,1.828148346E0,9.749604128E0
1.491299792E1,9.682016144E0,-8.973838806E-1,1.797162781E0,9.888201479E0
1.492301892E1,9.856403503E0,-3.360511780E-1,1.788181458E0,1.002293437E1
1.493304092E1,9.959089966E0,1.624122620E-1,1.649120636E0,1.009601157E1
1.494306192E1,1.011925690E1,5.318440247E-1,1.454974365E0,1.023714651E1
1.495308292E1,1.034408936E1,6.005511475E-1,1.279239807E0,1.044017724E1
1.496310492E1,1.049961594E1,1.781295776E-2,1.270707550E0,1.057624460E1
1.497312592E1,1.052655991E1,-1.388662262E0,1.420096893E0,1.071230701E1
1.498314692E1,1.037627243E1,-2.694696350E0,1.589095459E0,1.083760316E1
1.499316892E1,1.015847534E1,-3.352428589E0,1.601369934E0,1.081655141E1
1.500318992E1,1.000564316E1,-3.500919800E0,1.429826660E0,1.069643580E1
1.501321092E1,1.008422974E1,-3.383863220E0,1.279838562E0,1.071355246E1
1.502323292E1,1.049138306E1,-3.222947845E0,1.306483154E0,1.105275574E1
1.503325392E1,1.108310257E1,-2.894231415E0,1.291813660E0,1.152738134E1
1.504327492E1,1.160940811E1,-2.292183380E0,1.382375336E0,1.191400113E1
1.505329692E1,1.175056458E1,-1.505120087E0,2.159110107E0,1.204171544E1
1.506331792E1,1.145313309E1,-7.655081177E-1,3.372786255E0,1.196394364E1
1.507333892E1,1.085273163E1,-3.562591553E-1,4.463268585E0,1.174007968E1
1.508336092E1,1.036729111E1,-2.390528870E-1,4.943619690E0,1.148813505E1
1.509338192E1,1.050994446E1,-3.285667419E-1,4.994214478E0,1.164083618E1
1.510340292E1,1.108789261E1,-5.983058167E-1,4.771028595E0,1.208561319E1
1.511342492E1,1.167063080E1,-9.436376953E-1,4.352199554E0,1.249142571E1
1.512344592E1,1.220666611E1,-1.195713501E0,3.755690002E0,1.282722244E1
1.513346692E1,1.274015671E1,-1.424437866E0,3.116519165E0,1.319292643E1
1.514348892E1,1.328217957E1,-1.716779938E0,2.451003113E0,1.361510351E1
1.515350992E1,1.372765320E1,-2.096390533E0,1.443298645E0,1.396160544E1
1.516353092E1,1.395413223E1,-2.417772217E0,1.522334290E-1,1.416286002E1
1.517355292E1,1.393317581E1,-2.503094788E0,-9.126521301E-1,1.418561968E1
1.518357392E1,1.345267502E1,-2.609972534E0,-1.753603363E0,1.381526498E1
1.519359592E1,1.248388962E1,-2.625989227E0,-2.188898163E0,1.294351554E1
1.520361692E1,1.128323639E1,-2.500250702E0,-2.282154236E0,1.178010632E1
1.521363792E1,9.888586578E0,-2.299518127E0,-2.531385956E0,1.046326158E1
1.522365992E1,8.518635406E0,-1.833986206E0,-2.757864990E0,9.139828986E0
1.523368092E1,7.485334167E0,-1.103654938E0,-2.725083160E0,8.042037059E0
1.524370192E1,6.799161072E0,-2.348616028E-1,-2.565964050E0,7.271033129E0
1.525372392E1,6.328390045E0,6.105802917E-1,-2.485431519E0,6.826323951E0
1.526374492E1,6.081852722E0,1.335223389E0,-2.708916779E0,6.790433281E0
1.527376592E1,5.996679840E0,1.863474884E0,-3.327580261E0,7.106722039E0
1.528378792E1,6.047723694E0,2.125729523E0,-4.276157684E0,7.705790837E0
1.529380892E1,6.201454010E0,2.135309601E0,-5.157973938E0,8.343996289E0
1.530382992E1,6.616241455E0,1.872007141E0,-5.735023956E0,8.953745669E0
1.531385192E1,7.381300507E0,1.360071716E0,-5.739065552E0,9.448294325E0
1.532387292E1,8.380173340E0,7.929011536E-1,-5.259612579E0,9.925700073E0
1.533389392E1,9.422755280E0,3.393443298E-1,-4.414170685E0,1.041097375E1
1.534391592E1,1.028945297E1,1.960922241E-2,-3.532354431E0,1.087891331E1
1.535393692E1,1.077579163E1,-1.760339355E-1,-2.791395264E0,1.113285950E1
1.536395817E1,1.089943451E1,-9.145980835E-2,-2.105521545E0,1.110131787E1
1.537398017E1,1.062715073E1,2.662962341E-1,-1.741029510E0,1.077211353E1
1.538400117E1,1.006806335E1,7.289840698E-1,-1.562001801E0,1.021455663E1
1.539402217E1,9.436676331E0,1.025816803E0,-1.266366577E0,9.576369071E0
1.540404417E1,8.948691101E0,9.618997192E-1,-7.912545776E-1,9.034954748E0
1.541406517E1,8.784332886E0,8.764274597E-1,-2.113604736E-1,8.830475785E0
1.542408617E1,8.762178955E0,9.175918579E-1,3.573069763E-1,8.817336510E0
1.543410817E1,8.674760742E0,1.092727661E0,7.634124756E-1,8.776578279E0
1.544412917E1,8.677006073E0,1.257534943E0,1.268013153E0,8.858876107E0
1.545415117E1,8.856183472E0,1.131347351E0,1.926643524E0,9.133667816E0
1.546417217E1,9.067843323E0,6.797364807E-1,2.438728638E0,9.414628064E0
1.547419317E1,9.185798035E0,1.574725342E-1,2.673141174E0,9.568143335E0
1.548421517E1,9.042246552E0,-1.540296936E-1,2.877316589E0,9.490252821E0
1.549423617E1,8.693771210E0,-2.296224976E-1,2.963986359E0,9.188013902E0
1.550425717E1,8.271349640E0,-1.191522217E-1,2.827769623E0,8.742179543E0
1.551427917E1,7.964038696E0,1.383123779E-1,2.766397247E0,8.431962785E0
1.552430017E1,7.915539551E0,4.216731262E-1,2.594255219E0,8.340487680E0
1.553432117E1,8.095016327E0,6.351292419E-1,2.236798553E0,8.422348025E0
1.554434317E1,8.355774078E0,7.132667542E-1,1.720522156E0,8.560835613E0
1.555436417E1,8.559500427E0,6.833290100E-1,1.157243500E0,8.664363717E0
1.556438517E1,8.711284790E0,5.556445312E-1,8.159532166E-1,8.767040732E0
1.557440717E1,8.804840240E0,3.933819580E-1,8.099656677E-1,8.850762985E0
1.558442817E1,8.835526428E0,2.366578674E-1,9.851014709E-1,8.893422239E0
1.559444917E1,8.865164795E0,9.445358276E-2,1.242566071E0,8.952320300E0
1.560447117E1,8.911268921E0,3.457809448E-2,1.580862579E0,9.050471586E0
1.561449217E1,8.993747406E0,4.834945679E-2,1.954485626E0,9.203795094E0
1.562451317E1,9.087751923E0,1.565744019E-1,2.224075012E0,9.357257088E0
1.563453517E1,9.217082977E0,3.586541748E-1,2.334994354E0,9.515011827E0
1.564455617E1,9.431736603E0,5.845344543E-1,2.252066803E0,9.714480982E0
1.565457717E1,9.808203735E0,8.707392883E-1,2.131567383E0,1.007485121E1
1.566459917E1,1.023062531E1,1.222358093E0,1.883233795E0,1.047408340E1
1.567462017E1,1.064616119E1,1.578916626E0,1.585053864E0,1.087870036E1
1.568464217E1,1.095122681E1,1.892215118E0,1.339115295E0,1.119388567E1
1.569466317E1,1.113339798E1,2.105820923E0,1.230590973E0,1.139742894E1
1.570468417E1,1.125165207E1,2.070644073E0,1.240320740E0,1.150763384E1
1.571470617E1,1.133892059E1,1.772164764E0,1.369053040E0,1.155794075E1
1.572472717E1,1.143112885E1,1.336420898E0,1.644330597E0,1.162585698E1
1.573474817E1,1.155477173E1,8.740324402E-1,2.076182556E0,1.177230718E1
1.574477017E1,1.151690048E1,3.185375977E-1,2.663860474E0,1.182525330E1
1.575479117E1,1.148007706E1,-2.983296204E-1,3.439397736E0,1.198793671E1
1.576481217E1,1.178214890E1,-8.604107666E-1,4.282594299E0,1.256582481E1
1.577483417E1,1.255948242E1,-1.251996460E0,5.063819733E0,1.359964574E1
1.578485517E1,1.392105103E1,-1.381028137E0,5.511688385E0,1.503601042E1
1.579487617E1,1.559651688E1,-1.126707001E0,5.054539032E0,1.643378143E1
1.580489817E1,1.727527588E1,-6.653663635E-1,3.428021393E0,1.762467588E1
1.581491917E1,1.840841949E1,5.209167480E-2,1.417851562E0,1.846301505E1
1.582494017E1,1.797177750E1,1.105600891E0,-5.804928589E-1,1.801510787E1
1.583496217E1,1.521825348E1,1.670975189E0,-2.293530579E0,1.548055811E1
1.584498317E1,1.182705551E1,1.436263275E0,-2.814896393E0,1.224196618E1
1.585500417E1,8.959917755E0,1.163081360E0,-2.618804169E0,9.406966552E0
1.586502617E1,6.871460724E0,8.355624390E-1,-2.456242218E0,7.344948121E0
1.587504717E1,5.534890137E0,3.793112183E-1,-2.382894745E0,6.037969294E0
1.588506817E1,4.764442291E0,-2.110610962E-1,-2.447859650E0,5.360641193E0
1.589509017E1,4.390370178E0,-8.174501038E-1,-2.621199188E0,5.178248754E0
1.590511117E1,4.309538269E0,-1.408570862E0,-2.830164642E0,5.344719251E0
1.591513217E1,4.545148315E0,-1.938468933E0,-2.941383362E0,5.750458338E0
1.592515417E1,5.180876312E0,-2.337688751E0,-2.792742462E0,6.332904430E0
1.593517517E1,6.059848480E0,-2.380948792E0,-2.500849457E0,6.974591655E0
1.594519717E1,6.977440338E0,-2.016007690E0,-2.280357971E0,7.612423606E0
1.595521817E1,7.893535309E0,-1.404978333E0,-2.324815521E0,8.347851879E0
1.596523917E1,8.949888611E0,-9.122030640E-1,-2.628683624E0,9.372438219E0
1.597526117E1,9.861792297E0,-6.041436768E-1,-3.161276093E0,1.037369767E1
1.598528217E1,1.038944504E1,-4.770579529E-1,-3.891158295E0,1.110447051E1
1.599530317E1,1.048225204E1,-6.999444580E-1,-4.421206055E0,1.139800830E1
1.600532517E1,9.960137787E0,-1.197509766E0,-4.297413483E0,1.091357581E1
1.601534617E1,9.182953949E0,-1.662891998E0,-3.383863220E0,9.926851632E0
1.602536717E1,8.721014557E0,-1.884281616E0,-2.243534546E0,9.200003227E0
1.603538917E1,8.553662567E0,-1.985471191E0,-1.376537476E0,8.888312246E0
1.604541017E1,8.469687195E0,-2.118544464E0,-9.506730652E-1,8.782232695E0
1.605543117E1,8.431666260E0,-2.280357971E0,-9.385482788E-1,8.784867743E0
1.606545317E1,8.465346222E0,-2.349214783E0,-1.041683807E0,8.846807441E0
1.607547417E1,8.574768677E0,-2.282453613E0,-1.084195404E0,8.939336219E0
1.608549517E1,8.893755341E0,-1.997296600E0,-9.562115479E-1,9.165283318E0
1.609551717E1,9.401948547E0,-1.334774323E0,-6.975494385E-1,9.521808347E0
1.610553817E1,9.997110901E0,-3.763174438E-1,-5.897735596E-2,1.000436502E1
1.611555917E1,1.151211044E1,2.401456146E0,8.060737610E-1,1.178751176E1
1.612558117E1,9.149723053E0,4.809498596E-1,-1.773811340E-1,9.164071627E0
1.613560217E1,7.076085205E0,-1.680704956E0,1.228495331E0,7.375971242E0
1.614562317E1,6.887327728E0,-1.418150940E0,4.157604218E0,8.168972283E0
1.615564517E1,6.902446289E0,-1.381477203E0,3.950285339E0,8.071988497E0
1.616566617E1,6.886878662E0,-1.459614716E0,3.699706421E0,7.952823425E0
1.617568717E1,6.834038544E0,-1.654509430E0,3.912713470E0,8.046788861E0
1.618570917E1,6.900799713E0,-1.972298584E0,3.662583618E0,8.057637194E0
1.619573017E1,7.065606995E0,-2.116149445E0,3.392395477E0,8.118450452E0
1.620575217E1,7.424111481E0,-2.239792328E0,2.894081726E0,8.277065300E0
1.621577317E1,7.871680756E0,-2.276016998E0,2.465971985E0,8.557139074E0
1.622579417E1,8.308322754E0,-2.100282440E0,2.091001740E0,8.821094126E0
1.623581617E1,8.704099731E0,-1.694925385E0,1.849703522E0,9.058450602E0
1.624583717E1,9.032217407E0,-1.197509766E0,1.814826050E0,9.290240821E0
1.625585817E1,9.329349518E0,-6.527925110E-1,1.992805939E0,9.562121940E0
1.626588017E1,9.712552643E0,-6.571334839E-2,2.300565948E0,9.981512950E0
1.627590117E1,1.036818924E1,5.137316895E-1,2.653082886E0,1.071457499E1
1.628592217E1,1.121018829E1,8.653504944E-1,3.165467377E0,1.168063940E1
1.629594417E1,1.187750061E1,5.385800171E-1,4.113446045E0,1.258115764E1
1.630596517E1,1.215966385E1,-6.936575317E-1,5.296735382E0,1.328133997E1
1.631598617E1,1.217538116E1,-2.056423645E0,5.401517487E0,1.347758049E1
1.632600817E1,1.203272781E1,-2.779569855E0,4.253854065E0,1.306169291E1
1.633602917E1,1.195234497E1,-3.085832977E0,2.869233398E0,1.267333483E1
1.634605017E1,1.178918427E1,-3.250789948E0,2.058519287E0,1.240120972E1
1.635607217E1,1.133248398E1,-2.943179626E0,2.014810181E0,1.188052859E1
1.636609367E1,1.097727264E1,-1.965712280E0,2.717299347E0,1.147816428E1
1.637611467E1,1.106708588E1,-1.191073151E0,3.330124969E0,1.161846708E1
1.638613667E1,1.167377426E1,-8.756790161E-1,3.572620697E0,1.223958487E1
1.639615767E1,1.274614426E1,-8.479866028E-1,3.472478943E0,1.323787690E1
1.640617867E1,1.393332550E1,-1.121467896E0,3.010988617E0,1.429899655E1
1.641620067E1,1.511496826E1,-1.503623199E0,2.293829956E0,1.536179690E1
1.642622167E1,1.627505585E1,-1.735790405E0,1.593586121E0,1.644475381E1
1.643624367E1,1.714160385E1,-1.606010284E0,1.127904510E0,1.725357992E1
1.644626467E1,1.741029510E1,-1.137484589E0,7.253915405E-1,1.746248664E1
1.645628567E1,1.645079041E1,-6.378236389E-1,-2.100132751E-1,1.646448996E1
1.646630767E1,1.437580536E1,-3.309617615E-1,-1.252445526E0,1.443405470E1
1.647632867E1,1.220681580E1,-3.981719971E-1,-1.791175232E0,1.234395405E1
1.648634967E1,1.015248779E1,-7.590715027E-1,-1.968706055E0,1.036942628E1
1.649637167E1,8.202043762E0,-1.046324158E0,-2.200124817E0,8.556217934E0
1.650639267E1,6.599925385E0,-9.883946228E-1,-2.440225525E0,7.105676577E0
1.651641367E1,5.357509003E0,-5.936654663E-1,-2.759062500E0,6.055391588E0
1.652643567E1,4.381538544E0,3.023712158E-2,-3.353626099E0,5.517753375E0
1.653645667E1,3.697311401E0,7.869136047E-1,-4.111200714E0,5.584918615E0
1.654647767E1,3.283122711E0,1.510808258E0,-4.737049255E0,5.958277602E0
1.655649967E1,3.046764221E0,2.076781311E0,-5.188061371E0,6.364885986E0
1.656652067E1,2.948568420E0,2.498005371E0,-5.556445312E0,6.768173393E0
1.657654167E1,3.115621033E0,2.721490631E0,-5.784271545E0,7.111357324E0
1.658656367E1,3.828438721E0,2.383343811E0,-5.642815704E0,7.223478375E0
1.659658467E1,5.082979889E0,1.747316437E0,-5.250032501E0,7.513497225E0
1.660660567E1,6.686744843E0,1.368154907E0,-4.828359375E0,8.360470004E0
1.661662767E1,8.424481201E0,1.030008087E0,-4.424349518E0,9.571189520E0
1.662664867E1,1.012913635E1,7.171586609E-1,-4.148024139E0,1.096903934E1
1.663666967E1,1.160222305E1,5.017565918E-1,-3.989354095E0,1.227918098E1
1.664669167E1,1.274015671E1,3.987707520E-1,-3.763024750E0,1.329025832E1
1.665671267E1,1.327095291E1,5.022056580E-1,-3.426973572E0,1.371548576E1
1.666673467E1,1.293639862E1,7.631130981E-1,-2.942880249E0,1.328884100E1
1.667675567E1,1.183947968E1,9.994715881E-1,-2.229613495E0,1.208897840E1
1.668677667E1,1.046533722E1,1.045276337E0,-1.812880096E0,1.067250767E1
1.669679867E1,9.497150574E0,8.298742676E-1,-1.523531799E0,9.654310408E0
1.670681967E1,9.025631104E0,3.547622681E-1,-9.228309631E-1,9.079619489E0
1.671684067E1,8.858129425E0,-1.047821045E-2,-6.900650024E-2,8.858404405E0
1.672686267E1,8.759484558E0,-8.472381592E-2,7.405101013E-1,8.791137757E0
1.673688367E1,8.615034943E0,1.212478638E-2,1.566492462E0,8.756304740E0
1.674690467E1,8.554860077E0,8.771759033E-2,2.812201996E0,9.005654078E0
1.675692667E1,8.609197083E0,1.350192261E-1,3.876189423E0,9.442528742E0
1.676694767E1,8.592731323E0,9.475296021E-2,4.202510834E0,9.565830180E0
1.677696867E1,8.418044586E0,8.262817383E-2,4.623285828E0,9.604429911E0
1.678699067E1,8.060138855E0,1.627116394E-1,4.860542450E0,9.413670185E0
1.679701167E1,7.678881683E0,2.192939758E-1,4.641398163E0,8.975293347E0
