Time (s),Acceleration x (m/s^2),Acceleration y (m/s^2),Acceleration z (m/s^2),Absolute acceleration (m/s^2)
0.032075167,-4.57149353,7.46168335,5.461392975,10.31513862
0.042053167,-4.47210022,7.41019043,5.546865234,10.27999594
0.052031167,-4.210743713,7.406448212,5.694009247,10.24732058
0.062009167,-3.789369965,7.32127533,5.991590424,10.19115072
0.071987167,-3.480562134,7.111561432,6.166875916,10.03588448
0.081965167,-3.272494812,6.924899597,6.433770905,10.00284283
0.091943167,-3.108585663,6.864125977,6.793921967,10.14578267
0.101921167,-3.237168274,6.772067413,6.882088623,10.18348169
0.111898167,-3.261118469,6.518045654,6.31611557,9.644331429
0.121876167,-2.830613708,6.567592621,7.047494659,10.04055914
0.131854167,-2.740201721,6.526278534,7.414980469,10.25099763
0.141832167,-2.653981018,6.529571686,7.341333618,10.17713619
0.151810167,-2.705923004,6.516698456,7.436685333,10.25152022
0.161788167,-2.746039581,6.320606232,7.650440826,10.29660339
0.171766167,-2.465971985,6.188431091,7.853418732,10.2982466
0.181744167,-1.916464691,6.171815643,8.077652435,10.34469014
0.191721167,-1.343007202,6.182892609,8.253985748,10.40000529
0.201699167,-0.922830963,6.324198761,8.211773529,10.40578356
0.211677167,-0.624501343,6.553072815,8.045169983,10.39507216
0.221655167,-0.53244278,6.904541931,7.72019577,10.37099886
0.231633167,-0.458496552,7.2884935,7.413184204,10.40613553
0.241611167,-0.272283783,7.027885437,7.706723785,10.43354703
0.251589167,-0.484542389,6.455924835,7.834707642,10.16348319
0.261567167,-0.552501068,5.98964447,8.007298737,10.01488549
0.271545167,-0.318537598,5.66437088,8.0595401,9.856102186
0.281522167,-0.048798523,5.300627289,8.124055939,9.700480186
0.291500167,0.279019775,4.813240814,8.230185242,9.538400719
0.301478167,0.466579742,4.196822662,8.267308044,9.283286025
0.311456167,0.373173981,3.677702179,8.267906799,9.056656943
0.321434167,0.033230896,3.326382751,8.238717499,8.884953153
0.331412167,-0.444126434,3.128344574,8.079598389,8.675465301
0.341390167,-0.904269562,3.108735352,7.994275818,8.624986074
0.351368167,-1.134790192,3.14406189,7.969726868,8.642304108
0.361345167,-1.114282837,3.317401428,7.82557663,8.572422532
0.371323167,-0.981808319,3.628304901,7.423662415,8.321016024
0.381301167,-0.758921814,4.055217133,6.945257263,8.078201951
0.391279167,-0.11346405,4.579576721,6.719376984,8.13236891
0.401257167,0.947230225,5.191354523,6.877897339,8.669075999
0.411235167,1.542093201,5.569767609,7.202871552,9.234810298
0.421213167,0.767454071,5.782924347,7.523055725,9.519851217
0.431190167,-0.223036194,6.027665405,8.394543457,10.33686873
0.441168167,-0.672551422,5.942193146,8.850345612,10.68132025
0.451146167,-0.803529053,5.799240417,8.73463623,10.51526122
0.461124167,-0.879720612,5.729186096,8.10983551,9.968295425
0.471102167,-0.298628998,5.554948425,7.768694916,9.555064206
0.481080167,-0.311053162,5.311105499,7.404951324,9.117998674
0.491058167,-0.846489716,5.09226059,6.96905777,8.672682915
0.501036167,-1.086590424,4.816983032,6.900200958,8.485091487
0.511014167,-0.622106323,4.257596283,6.931186523,8.158154755
0.520991167,-0.619112549,4.755760345,6.97369812,8.46362938
0.530969167,-0.951571198,5.158273315,7.310946808,8.997956133
0.540947167,-0.988394623,5.080584869,7.138505402,8.817455751
0.550925167,-0.324674835,4.791685638,6.509513397,8.089464115
0.560903167,0.143102417,4.444108429,6.213878174,7.640867751
0.570881167,0.468675385,4.285737762,5.979914703,7.372013609
0.580859167,0.804876251,4.217330017,5.829477539,7.239924491
0.590837167,1.055155792,4.064797211,5.743256836,7.114838663
0.600814167,1.207239532,3.920048218,5.625900879,6.962396571
0.610792167,1.143472137,3.820804596,5.477409668,6.775551119
0.620770167,1.007255402,3.788022766,5.480852509,6.7382063
0.630748167,0.786464539,3.866309967,6.305487671,7.43814856
0.640726167,0.248932343,3.806733856,7.145840149,8.100384028
0.650704167,0.51597702,4.027375031,6.772666168,7.89651752
0.660682167,0.388292542,4.113745422,7.633526001,8.680114729
0.670660167,-0.014968872,4.126768341,9.079369354,9.973233622
0.680637167,-0.452958069,4.501888275,10.62610291,11.54929574
0.690615167,-1.12446167,5.046156464,12.01925583,13.08398333
0.700593167,-1.601669312,5.591771851,14.01819901,15.17706033
0.710571167,-1.079405365,6.001619568,15.43245804,16.59353231
0.720549167,-1.21577179,5.929319916,14.71035965,15.90690469
0.730527167,-1.692230988,5.598208466,15.23247391,16.31661255
0.740505167,-2.365381165,5.698499908,16.18389542,17.32011548
0.750483167,-2.737806702,6.10430603,17.14639389,18.40535143
0.760460167,-3.085683289,6.447093201,17.72808426,19.1146913
0.770438167,-3.386407928,6.612948303,18.21666824,19.67348078
0.780416167,-3.677253113,6.949298859,18.70016281,20.28573475
0.790394167,-4.131109314,6.956034851,18.79282013,20.46026817
0.800372167,-4.719984741,6.681954803,18.41755051,20.15274033
0.810350167,-5.142705688,6.603368225,17.63393005,19.51941041
0.820328167,-5.665269012,6.397546234,16.68116135,18.74259893
0.830306167,-6.746320953,5.87962326,16.31367554,18.60695638
0.840283167,-7.167395325,6.478677521,15.23187515,18.03759515
0.850261167,-6.401737518,7.309449921,14.12567551,17.14482458
0.860239167,-5.004692688,7.015760651,13.05405396,15.64212809
0.870217167,-3.671415253,5.922583923,11.36376892,13.33009881
0.880195167,-2.675087128,4.762646027,9.735455017,11.16324203
0.890173167,-2.057471466,3.90343277,8.306526489,9.405761986
0.900151167,-1.679357758,3.320993958,7.229216766,8.130855945
0.910129167,-1.67322052,2.948867798,6.577621765,7.400040289
0.920106167,-1.742526398,2.764151917,5.839057617,6.691152959
0.930080583,-1.039588165,2.450853424,4.30235321,5.059413919
0.940058583,-0.593066711,2.165546722,3.474574585,4.136905761
0.950036583,-0.237855377,1.978136444,3.475023651,4.005669526
0.960014583,0.023800507,1.853595428,3.146007843,3.651540473
0.969992583,0.103883972,1.779798889,2.399959259,2.989695705
0.979970583,0.164358215,1.553768921,1.714684296,2.319774497
0.989948583,0.520916748,1.140029297,1.593137054,2.027093173
0.999925583,0.273331604,1.322948914,1.79252243,2.244558009
1.009903583,-0.22109024,1.43805954,1.725162506,2.256785725
1.019881583,-0.839154968,1.006656647,1.223705292,1.793040241
1.029859583,-1.567390594,0.543070679,0.656834106,1.78411605
1.039837583,-2.051633606,0.728085938,0.686472473,2.282663804
1.049815583,-2.105970612,1.242266693,0.893641663,2.603254535
1.059793583,-1.830393677,1.347048798,1.082548828,2.517298838
1.069771583,-1.46141098,1.147364044,1.131047974,2.175186388
1.079748583,-1.14556778,0.947080536,1.008901978,1.796432654
1.089726583,-1.021326141,0.543968811,1.061442719,1.57024514
1.099704583,-0.989442444,0.139060822,1.339414673,1.671037381
1.109682583,-0.969683533,-0.124990082,1.478475494,1.772511907
1.119660583,-1.0683284,-0.306263123,2.154320068,2.424091093
1.129638583,-1.129700775,-0.257015533,2.802472229,3.032512394
1.139616583,-1.242715759,-0.004340973,3.004252625,3.251137514
1.149594583,-1.68609375,0.138761444,4.048780518,4.388028094
1.159571583,-2.274071045,0.671204224,5.997727661,6.449391547
1.169549583,-2.689606934,1.872605896,7.246281281,7.952938494
1.179527583,-2.729424133,2.242187347,7.711064758,8.481608333
1.189505583,-4.302652588,2.299069061,6.602470093,8.209211239
1.199483583,-5.648503876,3.861220551,9.151818695,11.42674081
1.209461583,-6.581813049,6.002068634,12.89538391,15.6727795
1.219439583,-6.023174744,9.524693298,14.85974899,18.6496798
1.229417583,-5.560786285,14.5862677,15.90098373,22.28279231
1.239394583,-6.255641327,17.73167679,17.32317627,25.56634206
1.249372583,-8.048762512,14.92920456,18.63100662,25.19480372
1.259350583,-5.816304932,11.50971542,15.07649826,19.83944939
1.269328583,-0.420475616,12.41832596,18.02312073,21.89119686
1.279306583,-2.562072144,14.61994766,25.25772629,29.29607176
1.289284583,-6.363417206,15.4197345,22.22578125,27.78932606
1.299262583,-4.332290955,14.96872238,21.67807022,26.69775502
1.309240583,-2.81055542,13.4183963,21.22122025,25.26445665
1.319217583,-2.838696899,11.97629517,20.06173141,23.53641675
1.329195583,-2.310595093,11.33892059,19.27167435,22.47904362
1.339173583,-0.196241913,10.06701553,16.96646805,19.72927649
1.349151583,1.71648056,8.927285614,13.40462494,16.19650282
1.359129583,2.334545288,7.037914581,11.57003998,13.74220392
1.369107583,2.411485291,5.420078888,9.034762115,10.80830435
1.379085583,2.931354218,4.374054108,7.474406891,9.142863078
1.389063583,2.233505402,3.14989975,6.124514008,7.240171727
1.399041583,2.67838028,1.828148346,4.985083466,5.947008026
1.409018583,2.552042999,0.404159546,4.091441803,4.839025153
1.418996583,2.310445404,-0.978365479,3.410358124,4.233898854
1.428974583,2.689906311,-2.163151703,2.946622467,4.538436428
1.438952583,2.778522034,-2.973416748,2.490970001,4.771406857
1.448930583,2.481090546,-2.968776398,1.878892822,4.301125647
1.458908583,1.219663696,-2.316283264,1.066532135,2.82670099
1.468886583,1.287472687,-1.794468384,0.798888702,2.34860083
1.478864583,1.066981201,-2.297123108,0.647703094,2.614334094
1.488841583,0.367934875,-3.284020844,0.468226318,3.337574697
1.498819583,0.670605469,-3.642375641,0.16375946,3.707213126
1.508797583,0.532143402,-3.776197357,0.301622772,3.825417543
1.518775583,0.426612854,-4.014352112,0.215402069,4.042699526
1.528753583,0.564625854,-4.064497833,-0.202828217,4.108537973
1.538731583,0.382005615,-3.742068329,-0.362546082,3.778947384
1.548709583,-0.05269043,-3.261268158,-0.472567291,3.295749706
1.558687583,-0.381706238,-2.812201996,-0.800834656,2.94881601
1.568664583,-0.683029633,-2.691852264,-0.945284271,2.933625819
1.578642583,-0.83541275,-2.702330475,-0.852177887,2.954100812
1.588620583,-0.691861267,-2.216590576,-0.648002472,2.410778505
1.598598583,-0.595761108,-1.358125763,-0.219892731,1.499263052
1.608576583,-0.592767334,-0.399968262,0.498014374,0.871416111
1.618554583,-0.572259979,0.738713837,1.523232422,1.787013326
1.628532583,-0.496667175,2.285896454,2.506687317,3.428626866
1.638510583,-0.601000214,4.587210846,3.877835999,6.036664363
1.648487583,-1.423390045,7.662116547,6.238427124,9.982586948
1.658465583,-2.059866486,11.6600029,9.939480743,15.45936593
1.668443583,-1.596579895,13.47797241,12.26863724,18.29547123
1.678421583,-1.196761322,13.85309235,14.72652603,20.2536657
1.688399583,0.403860168,15.2710936,16.70735687,22.63857717
1.698377583,1.615590363,16.67083282,18.73563904,25.13067786
1.708355583,1.705852661,17.88181458,21.71339676,28.18050434
1.718333583,0.431253204,17.88840088,24.74953308,30.5404691
1.728310583,-0.922980652,16.86258408,27.94284256,32.64967206
1.738288583,-0.931213531,15.55984314,29.85017624,33.67504861
1.748266583,-0.68452652,13.96940048,30.10868866,33.19858219
1.758244583,-0.269739075,12.34243378,29.47999603,31.96057879
1.768222583,-0.172591095,10.60005707,28.81313278,30.70158983
1.778200583,-0.250728607,8.564739532,27.09291,28.41554857
1.788178583,-0.55579422,6.735243988,24.10647034,25.0358609
1.798156583,-0.990190887,5.087021484,20.39733353,21.04541472
1.808133583,-1.479074249,3.94205246,16.59628784,17.12203867
1.818111583,-1.727258148,2.959645386,12.95540909,13.40095318
1.828089583,-1.664538574,2.392474823,9.610315247,10.04254866
1.838067583,-1.027912445,2.077978821,6.741081848,7.128589233
1.848045583,0.008831635,1.428928528,5.001998291,5.202105501
1.858023583,1.077758789,0.391436005,3.948489075,4.111611865
1.868001583,2.017654266,-0.251027985,2.377206573,3.128107236
1.877979583,2.447260895,-0.609682159,1.321751404,2.847424274
1.887957583,4.989424438,-0.098944244,2.061063995,5.399271338
1.897934583,4.259242859,1.081051941,2.754122772,5.186040424
1.907912583,3.655847626,1.135688324,0.506846008,3.861593286
1.917890583,3.661086731,0.628992004,-0.267793121,3.724365738
1.927868417,2.229912872,0.091459808,-0.909808044,2.410109332
1.937846417,2.361788635,-0.308358765,-1.448687439,2.787799487
1.947824417,1.764380951,-0.681083679,-1.720971222,2.557079792
1.957802417,-0.022303619,-2.190544739,0.396226044,2.226202772
1.967780417,0.088765411,-1.678609314,-2.3436763,2.88416836
1.977757417,1.003513184,0.25042923,-4.402195587,4.522065844
1.987735417,0.142952728,-0.906664581,-2.189047852,2.373690511
1.997713417,-0.677640839,-1.10335556,-4.154011688,4.351138208
2.007691417,-0.212557983,-0.334554291,-3.123105469,3.148157436
2.017669417,-0.12992981,-0.180823975,-2.29338089,2.304164701
2.027647417,-0.039517822,0.251477051,-2.545307007,2.558005106
2.037625417,0.375419312,0.84364563,-2.480491791,2.646793746
2.047603417,0.321531372,1.6907341,-1.973496094,2.618520776
2.057580417,0.120050354,2.509232025,-1.706601105,3.036963084
2.067558417,0.59561142,2.634072418,-0.824335785,2.823582822
2.077536417,0.731079712,2.41507782,1.16427887,2.778960904
2.087514417,-0.07723938,3.011287994,3.987557831,4.997443222
2.097492417,-1.016985168,4.550237732,6.702013092,8.164306568
2.107470417,-2.54605545,6.422993317,9.516610107,11.76023424
2.117448417,-3.372935944,7.537575531,13.66433487,15.9657693
2.127426417,-2.631976776,7.467970276,17.78451691,19.46758648
2.137403417,-0.724942474,7.03342392,21.3571376,22.4971536
2.147381417,0.841549988,6.701564026,24.17143524,25.09735939
2.157359417,0.39203476,6.737040253,24.56092529,25.47116907
2.167337417,-0.717757416,7.110363922,25.18153473,26.17598407
2.177315417,-2.108665009,7.473209381,26.71928696,27.8247304
2.187293417,-3.629352722,7.34582428,28.51540192,29.6692009
2.197271417,-3.713926849,7.57275238,29.22986618,30.42244086
2.207249417,-2.855911102,7.930358734,30.46210373,31.60674899
2.217226417,-3.211721191,7.182214508,31.07253433,32.05310824
2.227204417,-2.982697449,6.421346741,29.4605365,30.29939585
2.237182417,-4.095184021,3.667373657,28.04687622,28.58054281
2.247160417,-4.762795715,1.461710358,25.24081146,25.72779399
2.257138417,-4.680766296,0.048948212,21.58316757,22.0849517
2.267116417,-4.217779083,-1.001866608,17.78646286,18.30714773
2.277094417,-2.942281494,-1.34330658,14.5093277,14.86546613
2.287072417,-1.576970673,-1.240021362,11.495495,11.66922854
2.297049417,-0.49726593,-1.005608826,8.343948669,8.419026186
2.307027417,0.547261963,-0.808019714,5.394931183,5.482487937
2.317005417,1.181642761,-0.578546906,2.822979584,3.114515992
2.326983417,1.456321564,-0.564775543,1.020428009,1.865775236
2.336961417,1.740131378,-0.597557373,-0.591719513,1.932683111
2.346939417,1.59014328,-0.376616821,-1.713786163,2.368007368
2.356917417,0.912203064,0.073197784,-1.726659393,1.954181416
2.366895417,0.74530014,0.66581543,-2.181264038,2.39931142
2.376872417,0.962648163,1.038690033,-2.298619995,2.699855987
2.386850417,0.829425201,1.643881531,-2.461631012,3.0740722
2.396828417,0.749192047,2.071242828,-2.530188446,3.354577343
2.406806417,0.592617645,2.139949951,-2.316582642,3.208915175
2.416784417,0.573457489,1.845811615,-2.058070221,2.823389283
2.426762417,0.512384491,1.923050995,-2.01256485,2.830385181
2.436740417,0.389340363,1.802401886,-1.463207245,2.353978317
2.446718417,0.09834549,1.7106427,-0.246387634,1.731091317
2.456695417,0.575852509,1.754052429,1.059197388,2.128427857
2.466673417,1.557960205,1.954635315,2.339784393,3.423803473
2.476651417,1.957180023,1.922152863,4.211641846,5.026246344
2.486629417,1.843865662,2.113904114,5.933660889,6.563289017
2.496607417,2.020797729,2.633473663,7.011868744,7.757906308
2.506585417,1.447040863,3.090323639,8.242310028,8.9207456
2.516563417,0.691711578,3.401526489,9.483379211,10.09867955
2.526541417,0.484542389,3.203488312,10.37761963,10.87161938
2.536518417,-0.09834549,3.346141663,10.96754288,11.46705423
2.546496417,-0.661474457,4.330794067,11.04328537,11.88055039
2.556474417,-1.443598022,5.750292206,11.00152222,12.49733279
2.566452417,-2.43962677,7.959548035,11.19207596,13.9487902
2.576430417,-3.236270142,10.30487091,12.19169724,16.28807203
2.586408417,-3.329825592,11.64084274,14.13016617,18.60802392
2.596386417,-2.563119965,11.84022812,15.9824144,20.0548786
2.606364417,-1.506018219,11.17111954,17.45909363,20.78176972
2.616341417,-0.375718689,10.23092468,17.96085022,20.67377868
2.626319417,0.246687012,9.462871857,18.01518723,20.35076827
2.636297417,-0.400267639,9.029822388,17.00359085,19.25668737
2.646275417,-1.953886871,10.59391983,15.91191101,19.21555941
2.656253417,-4.204456787,12.63821869,14.05562119,19.36394886
2.666231417,-6.358178101,13.50401825,13.24116486,19.95277886
2.676209417,-7.007527771,13.11063629,12.07389221,19.15132117
2.686187417,-6.358926544,12.84179535,10.6871759,17.87633585
2.696164417,-5.490282898,12.5120311,9.550888824,16.67074101
2.706142417,-3.862567749,11.33682495,8.212521973,14.52200216
2.716120417,-1.415905609,9.468709717,6.673422546,11.67029652
2.726098417,0.12633728,7.203320618,5.898933105,9.311347959
2.736076417,0.953068085,5.098547516,5.558391266,7.602581076
2.746054417,1.886976013,3.823049927,4.703968048,6.348519876
2.756032417,2.103425903,2.843786316,3.977828064,5.323028954
2.766010417,2.287992096,1.782493286,3.480711823,4.530733377
2.775987417,2.341430969,0.890498199,3.329675903,4.16677665
2.785965417,1.074465637,0.898431702,3.680396576,3.937889649
2.795943417,0.832119598,1.298998718,3.266956329,3.612869269
2.805921417,1.12565918,1.211730194,2.641856232,3.116857873
2.815899417,1.131197662,1.035247192,2.285447388,2.752201784
2.825877417,1.111887817,0.840801544,2.102228394,2.522420658
2.835855417,0.970282288,0.460442505,2.095043335,2.354285793
2.845833417,0.88106781,0.151484985,2.043999481,2.230955415
2.855810417,0.815953217,0.09714798,1.743274841,1.927232356
2.865788417,0.685424652,-0.191751251,1.575024719,1.728374486
2.875766417,0.642463989,-0.564326477,1.636546783,1.846485777
2.885744417,-0.09131012,-0.377814331,1.929637299,1.968395618
2.895722417,-0.439785461,0.172291718,2.047442322,2.101217682
2.905700417,-0.166453857,0.196990356,2.020498352,2.03689118
2.915678417,0.020058289,0.03038681,2.122286682,2.122598986
2.925659792,0.408051453,0.175584869,2.147584076,2.193046602
2.935636792,0.894988861,0.243244171,2.207309875,2.394240939
2.945614792,1.012045441,0.135468292,2.575993195,2.770979713
2.955592792,0.941991119,0.189655609,3.317551117,3.453905316
2.965570792,0.541873169,0.249830475,4.171974335,4.214428982
2.975548792,0.365539856,0.364192657,5.323080597,5.348031668
2.985526792,-0.227377167,1.288969574,7.050787811,7.17124478
2.995504792,-0.391436005,1.3947995,7.856562195,7.989008531
3.005482792,-0.623154144,1.592837677,9.908495178,10.05503504
3.015459792,-0.890947266,3.043171692,11.85654419,12.27323597
3.025437792,-0.711320801,4.026476898,14.07642792,14.6582508
3.035415792,-0.310903473,4.370461578,16.08510086,16.67117468
3.045393792,0.081580353,4.662055206,17.72179733,18.32494242
3.055371792,0.094453583,4.927303619,19.19952438,19.82193177
3.065349792,-0.359103241,5.047952728,20.20198975,20.82621357
3.075327792,-0.761466522,6.012247467,20.74565918,21.61271213
3.085305792,-1.508113861,7.891888733,20.91405899,22.40433393
3.095282792,-2.334694977,10.362052,21.03171432,23.56174717
3.105260792,-4.145180054,12.34183502,21.66280197,25.2741053
3.115238792,-5.690566406,13.16901489,22.72259811,26.87232711
3.125216792,-5.950126648,14.46457077,23.36386459,28.11579598
3.135194792,-5.785169678,15.37662415,23.65935013,28.80405539
3.145172792,-4.662204895,14.39691147,23.92669418,28.31066776
3.155150792,-3.268602905,12.64570313,24.0048317,27.32818174
3.165127792,-2.090852051,10.48240173,24.09045364,26.35531
3.175105792,-0.761017456,8.396040344,22.94473618,24.44449957
3.185083792,0.231269073,6.359076233,20.54402847,21.50693939
3.195061792,0.716559906,3.880081329,17.86654633,18.29704804
3.205039792,1.072519684,1.998793488,14.82172806,14.99430213
3.215017792,1.2660672,0.763412476,11.79876434,11.89102875
3.224995792,1.282233582,-0.277073822,9.066346436,9.16076037
3.234973792,1.183588715,-0.928519135,6.590944061,6.760441823
3.244951792,1.412911835,-1.304088135,4.162394257,4.58502908
3.254928792,1.444645844,-1.914369049,2.417023773,3.404969073
3.264906792,1.309776306,-2.608325958,0.910257111,3.057359365
3.274884792,1.514700165,-3.170257416,-0.357456665,3.531660224
3.284862792,1.827100525,-3.928730164,-1.299148407,4.523384088
3.294840792,1.761387177,-4.617897034,-2.024839325,5.341107759
3.304818792,1.579066315,-4.766687622,-2.725532227,5.713430426
3.314796792,1.55616394,-4.657265167,-3.398383026,5.97166411
3.324773792,1.444346466,-4.360432434,-4.015100555,6.100863889
3.334751792,1.255139923,-4.063599701,-4.270319824,6.026927091
3.344729792,1.019230499,-3.647015991,-4.276756439,5.71228519
3.354707792,0.527203674,-2.944826202,-4.367168427,5.29359095
3.364685792,-0.130528564,-2.296374664,-4.377496948,4.944982693
3.374663792,-0.30895752,-1.885329437,-4.14098877,4.560450616
3.384641792,-0.371527405,-1.855092316,-3.787124634,4.233404434
3.394619792,-0.344284058,-1.966311035,-3.11128006,3.69661659
3.404596792,-0.541274414,-1.846260681,-2.240241394,2.953021842
3.414574792,-0.817450104,-1.539548492,-1.295406189,2.171753077
3.424552792,-1.082399139,-1.361568604,-0.151934052,1.746007135
3.434530792,-1.492695923,-1.467548218,1.665436707,2.674980058
3.444508792,-2.007325745,-1.599573669,3.731739807,4.529224498
3.454486792,-2.506387939,-1.595382385,5.533842316,6.280974147
3.464464792,-3.528612213,-1.419198761,7.466623077,8.379480262
3.474442792,-5.144501953,-0.591420135,9.827812958,11.10862663
3.484419792,-7.040309601,1.042731628,11.5683934,13.58237735
3.494397792,-8.505762177,2.741848297,13.36480774,16.07743164
3.504375792,-9.524842987,3.909869385,16.15994522,19.16125106
3.514353792,-9.179960175,6.071075134,18.19421494,21.26403252
3.524331792,-8.341104584,8.77684845,20.27219376,23.61289762
3.534309792,-7.283853149,11.2299472,22.24883331,25.96491507
3.544287792,-6.552623749,13.13114365,23.85574173,28.0082171
3.554265792,-6.676116943,14.15800827,25.72250977,30.1109157
3.564242792,-6.580765228,14.84867203,27.19499771,31.67581779
3.574220792,-6.586303711,15.55340652,27.74824722,32.48465907
3.584198792,-7.288942566,15.54906555,27.86260941,32.72960626
3.594176792,-7.947572937,14.66814743,27.95182388,32.55184976
3.604154792,-7.67109787,12.80377441,27.68732391,31.45425706
3.614132792,-6.950047302,10.84015778,26.34566391,29.32415702
3.624110792,-5.944887543,8.471034393,24.18370972,26.30497913
3.634088792,-4.669539642,5.649851074,21.42374908,22.64293361
3.644065792,-3.467539215,2.567011871,18.50137619,18.99774458
3.654043792,-2.163600769,0.427960052,15.15134262,15.31102548
3.664021792,-1.247206421,-0.899928589,11.89591232,11.99492081
3.673999792,-0.864003296,-1.996398468,9.143436127,9.398645261
3.683977792,-0.500559082,-2.675386505,6.305188293,6.86757976
3.693955792,-0.780926056,-2.984194336,3.834875336,4.92153738
3.703933792,-1.423539734,-3.039728851,1.743723907,3.782458186
3.713911792,-1.837878113,-3.088826752,0.048948212,3.594585176
3.723888792,-1.496288452,-3.327430573,-1.435365143,3.92057986
3.733866792,-0.795296173,-3.409759369,-2.728076935,4.438621263
3.743844792,-0.042361908,-3.48804657,-3.606899414,5.017767112
3.753822792,0.361198883,-3.686683502,-3.994144135,5.447502845
3.763800792,0.619411926,-3.770958252,-4.187841339,5.669374953
3.773778792,0.589474182,-3.623664551,-4.468208313,5.783019118
3.783756792,0.305514679,-3.437302094,-4.453538818,5.634038774
3.793734792,0.114212494,-3.139271851,-4.35504364,5.369774423
3.803711792,0.12289444,-2.874622192,-4.116739197,5.02255885
3.813689792,-0.188607788,-2.604434052,-3.509302368,4.374225959
3.823667792,-0.502055969,-2.201771393,-2.869682465,3.651703015
3.833645792,-0.376916199,-1.863025818,-2.273023224,2.963033175
3.843623792,-0.205821991,-1.730850677,-1.481169891,2.287372074
3.853601792,-0.024848328,-1.655407562,-0.51477951,1.733778989
3.863579792,0.10762619,-1.674118652,0.601149902,1.782031948
3.873557792,0.139809265,-1.839225311,1.835034027,2.601854388
3.883534792,-0.126486969,-1.758243713,3.3230896,3.761694352
3.893512792,-1.193767548,-1.057850189,4.916376343,5.168644341
3.903490792,-3.052452393,0.01287323,6.962770844,7.602487037
3.913468792,-4.818629608,1.460363159,8.851543121,10.18340157
3.923443417,-6.715634766,3.009042664,10.89524323,13.14763907
3.933421417,-8.240214386,4.267475739,13.84366196,16.66611708
3.943399417,-8.64691864,4.951553192,16.94730789,19.65956067
3.953377417,-7.750432892,6.470145264,19.61176712,22.05795547
3.963354417,-6.879843292,8.120912476,21.74722641,24.21204906
3.973332417,-6.211333466,10.44363235,24.72917542,27.55326182
3.983310417,-5.423222351,16.21308472,27.01432343,31.96950307
3.993288417,-5.703589325,16.80240921,29.42805405,34.36367634
4.003266417,-5.648204498,14.96363297,31.52773773,35.35266287
4.013244417,-5.194198608,16.15964584,32.1440062,36.35039184
4.023222417,-5.806724854,16.97455124,32.29025208,36.93932623
4.033200417,-5.882916412,15.75069626,31.6542247,35.84247591
4.043177417,-5.844895477,13.22425003,29.97232224,33.27737508
4.053155417,-5.659431152,10.45710434,27.2442453,29.72589938
4.063133417,-4.718787231,7.472910004,23.26312408,24.88542302
4.073111417,-3.583098907,4.192631378,18.97020126,19.75563949
4.083089417,-2.792892151,1.466650085,14.7283223,15.06236325
4.093067417,-2.128872986,-0.712368622,10.64182022,10.87602441
4.103045417,-1.831291809,-2.158361664,7.440427551,7.960660582
4.113023417,-1.516496429,-3.209176483,4.560117188,5.778688769
4.123000417,-1.620679779,-4.256099396,2.232756958,5.072099038
4.132978417,-1.762884064,-4.856351166,0.308358765,5.175615132
4.142956417,-1.462758179,-5.238656158,-1.370998993,5.609172673
4.152934417,-0.890647888,-5.483546906,-2.483335876,6.085186719
4.162912417,-0.482446747,-5.695206757,-3.01068924,6.460060724
4.172890417,-0.185464325,-5.852080536,-3.390449524,6.76582527
4.182868417,-0.001496887,-5.708229675,-3.749103699,6.829324038
4.192845417,0.041763153,-5.414690094,-3.956871643,6.706522659
4.202823417,0.113913116,-5.022206268,-4.061204681,6.459792215
4.212801417,0.221239929,-4.576433258,-4.007915497,6.08737013
4.222779417,0.204923859,-4.058061218,-3.679648132,5.481757475
4.232757417,-0.023052063,-3.372486877,-3.41784256,4.801650435
4.242735417,-0.500559082,-2.550097046,-3.106490021,4.05016476
4.252713417,-0.756975861,-1.95987442,-2.760559387,3.469122126
4.262691417,-0.592168579,-1.685644684,-2.378703461,2.974943996
4.272669417,-0.357905731,-1.471440125,-1.908980255,2.436685898
4.282646417,-0.129181366,-1.153950348,-1.169368286,1.64794157
4.292624417,0.0490979,-0.978814545,-0.185464325,0.997439488
4.302602417,-0.111967163,-1.006506958,1.042432251,1.453360898
4.312580417,-0.351319427,-1.150806885,2.160157928,2.472663362
4.322558417,-0.523910522,-1.652862854,3.447480927,3.858958744
4.332536417,-1.361718292,-2.131268005,4.963827667,5.571011141
4.342514417,-2.341131592,-2.133513336,6.639742584,7.356558833
4.352492417,-2.985691223,-2.228116608,8.299940186,9.097684474
4.362469417,-3.961511993,-1.789528656,9.827663269,10.7461135
4.372447417,-5.667364655,-0.364641724,11.16692825,12.5280594
4.382425417,-7.339537354,1.409319305,12.69495071,14.73148883
4.392403417,-8.464148712,3.216361542,14.66036362,17.23116526
4.402381417,-8.479866028,4.813540192,16.78833847,19.41459775
4.412359417,-7.651039581,7.525750122,18.49928055,21.38688155
4.422337417,-6.969656525,11.90145081,19.66445755,24.01898279
4.432314417,-5.852679291,16.18569168,20.95836685,27.11980109
4.442292417,-5.759572906,19.33663925,22.71586212,30.38237465
4.452270417,-7.223229218,21.56535461,24.96807861,33.77342905
4.462248417,-7.624993744,23.37030121,27.06761261,36.56456154
4.472226417,-7.583829346,23.68300095,28.79052979,38.04331225
4.482204417,-7.877368927,21.49769531,30.24520477,37.93384052
4.492182417,-7.747738495,18.06368637,30.84800125,36.57763522
4.502160417,-7.399712219,14.33434158,30.33172485,34.35465939
4.512137417,-7.153474274,10.36893768,28.6071611,31.25790667
4.522115417,-6.980134735,6.13364502,25.66428085,27.29467336
4.532093417,-6.408174133,2.299368439,21.77955917,22.81887352
4.542071417,-5.744604034,-0.561183014,17.57659927,18.50006065
4.552049417,-5.033582611,-2.375859375,13.52841751,14.62873002
4.562027417,-4.120331726,-3.288511505,9.809251556,11.13610603
4.572005417,-3.286415863,-3.885919189,6.65890274,8.381043066
4.581983417,-2.519410858,-4.265978851,4.141138458,6.457169222
4.591960417,-1.563798065,-4.543202362,1.939816132,5.181605805
4.601938417,-0.820892944,-4.622238007,0.156275024,4.697166305
4.611916417,-0.542172546,-4.393363953,-1.263073425,4.603363158
4.621894417,-0.401465149,-4.211043091,-2.327360229,4.828111827
4.631872417,-0.136815491,-4.206552429,-3.137625275,5.24961848
4.641850417,0.101189575,-4.006717987,-3.799698486,5.522837762
4.651828417,0.354313202,-3.764072571,-4.330943756,5.748987214
4.661806417,0.649499359,-3.629053345,-4.727319489,5.994950137
4.671783417,0.727337494,-3.394491119,-4.948858795,6.045063537
4.681761417,0.952619019,-3.179388428,-5.019960938,6.017973212
4.691739417,1.162781982,-3.004851379,-4.986580353,5.93693333
4.701717417,1.072819061,-2.831511841,-4.811893616,5.685307398
4.711695417,0.966689758,-2.513123932,-4.635111237,5.360460536
4.721673417,0.853225708,-2.26883194,-4.249363403,4.892104027
4.731651417,0.706830139,-2.440973969,-3.461701355,4.29433802
4.741629417,0.533939667,-2.429298248,-2.572250977,3.578135916
4.751606417,0.64710434,-2.100581818,-1.83697998,2.864556414
4.761584417,0.538130951,-2.215542755,-0.596060486,2.356587092
4.771562417,0.150736542,-2.507136383,0.934356995,2.679827857
4.781540417,-0.117505646,-2.580184479,2.367626495,3.503828584
4.791518417,-0.252674561,-2.582729187,3.731889496,4.545473979
4.801496417,-0.671054535,-2.790796509,5.130431213,5.878791013
4.811474417,-1.229543152,-2.638263702,7.02983139,7.608596526
4.821452417,-2.416724396,-1.677262115,8.786278839,9.265660303
4.831429417,-4.02153717,0.114362183,10.47701294,11.22290693
4.841407417,-6.000122681,2.222278748,12.68252655,14.20515662
4.851385417,-8.27479248,4.539310455,15.00120483,17.72325242
4.861363417,-9.59474762,6.944209442,17.42032425,21.06534888
4.871341417,-10.0011525,8.502469025,19.96413437,23.89313064
4.881319417,-9.552086334,10.83836151,21.28543671,25.72512875
4.891297417,-7.913892975,13.6453244,21.79018707,26.90049874
4.901275417,-6.288273468,16.55108185,21.94810867,28.19929375
4.911252417,-6.997947693,20.4242775,22.20512421,30.97079147
4.921230417,-10.27732819,22.74699738,23.45083374,34.24895571
4.931211917,-11.08205475,23.81532578,23.15849167,35.0185296
4.941189917,-11.88767944,24.25915283,22.05932739,34.87746183
4.951167917,-13.13279022,23.6770134,21.94271988,34.85045334
4.961145917,-13.47048798,21.89541824,21.77222443,33.68817512
4.971123917,-13.0826445,18.99160675,21.56505524,31.57353831
4.981101917,-11.86896835,15.31719772,20.96899475,28.55149202
4.991078917,-10.34199371,11.55417297,19.70996292,25.07864401
5.001056917,-8.501271515,7.713310089,17.69934402,21.09581828
5.011034917,-6.607409821,4.200415192,15.27094391,17.16109205
5.021012917,-5.083578644,1.511556702,12.77967453,13.83646113
5.030990917,-3.847898254,-0.474513245,10.31460068,11.01918649
5.040968917,-2.868484955,-1.853146362,8.070467377,8.763264292
5.050946917,-2.13066925,-2.630030823,5.76615921,6.686210109
5.060924917,-1.294957123,-3.373534698,3.720812531,5.186723069
5.070901917,-0.578097839,-3.880829773,1.974843292,4.392612306
5.080879917,-0.202528839,-3.916156311,0.493523712,3.952323853
5.090857917,0.094603271,-3.797902222,-0.758323059,3.874024384
5.100835917,0.390687561,-3.639381866,-1.808688812,4.082779979
5.110813917,0.421074371,-3.313359833,-2.652035065,4.264850172
5.120791917,0.435893555,-2.947071533,-3.295546875,4.442506389
5.130769917,0.508642273,-2.72283783,-3.779789886,4.686083055
5.140747917,0.530646515,-2.505938873,-4.121978302,4.853042394
5.150724917,0.668659515,-2.379751282,-4.420457611,5.064658646
5.160702917,0.76640625,-2.246228943,-4.711302795,5.275348049
5.170680917,0.80382843,-2.143093414,-4.934638367,5.439636508
5.180658917,0.784518585,-1.999990997,-5.071902924,5.508142397
5.190636917,0.810564423,-1.857187958,-5.079237671,5.468529703
5.200614917,0.870290222,-1.723216553,-4.818928986,5.191238477
5.210592917,0.814456329,-1.57023468,-4.428840179,4.769025204
5.220570917,0.602048035,-1.429078217,-3.876788177,4.175429673
5.230547917,0.671353912,-1.23448288,-3.215463409,3.50911228
5.240525917,0.735420685,-1.050814819,-2.403851166,2.724620303
5.250503917,0.891845398,-0.852776642,-1.556014252,1.985899435
5.260481917,1.13149704,-0.631237335,-0.319585419,1.334496521
5.270459917,0.891695709,-0.060474243,1.049018555,1.378121294
5.280437917,0.24803421,1.066831512,2.75786499,2.967401178
5.290415917,-0.780926056,2.626438293,4.724924469,5.461953392
5.300393917,-2.258653107,4.190386047,7.280410309,8.698575938
5.310370917,-3.105142822,5.649402008,10.36429733,12.20558537
5.320348917,-3.763473816,7.544610901,14.35365143,16.6466873
5.330326917,-3.348386993,9.966574402,18.22834396,21.04321326
5.340304917,-1.713786163,10.97338074,22.18731125,24.81187071
5.350282917,-0.235011292,11.20270386,24.93260239,27.3347849
5.360260917,0.584684143,12.74674301,25.78867218,28.7728505
5.370238917,0.166004791,14.85271362,25.58389801,29.58321309
5.380215917,-1.396446075,16.61320267,25.56638443,30.521936
5.390193917,-4.453987885,17.28276031,26.18355103,31.68769724
5.400171917,-7.14105011,18.46874405,25.87833572,32.5849254
5.410149917,-6.945856018,19.44187042,24.78994904,32.26101075
5.420127917,-6.794221344,18.90179352,24.30435883,31.53000317
5.430105917,-6.126160583,17.57540176,23.71099274,30.14358584
5.440083917,-5.275629272,15.85742432,22.76945068,28.24425702
5.450061917,-4.563260651,14.10950912,21.23005188,25.89626804
5.460038917,-3.845054169,12.16355576,19.11614777,22.98181097
5.470016917,-3.155887299,9.707163849,16.76648392,19.62915275
5.479994917,-2.375410309,6.656507721,14.25470718,15.91063626
5.489972917,-1.623074799,3.588487701,11.82211578,12.46090034
5.499950917,-0.674347687,1.151854706,9.52095108,9.61405344
5.509928917,0.162711639,-0.460891571,7.364086304,7.380288829
5.519906917,0.743503876,-1.670675812,5.566474457,5.859146146
5.529884917,1.231788483,-2.52854187,3.894750824,4.80415558
5.539862917,1.436412964,-2.9767099,2.367925873,4.065852551
5.549839917,1.337468719,-3.119063873,0.941841431,3.52199479
5.559817917,0.946481781,-3.231480103,-0.338745575,3.384234031
5.569795917,0.7020401,-3.434757385,-1.357377319,3.759373855
5.579773917,0.384849701,-3.379522247,-2.049388275,3.971054295
5.589751917,-0.00464035,-2.914140015,-2.520758057,3.853109749
5.599729917,-0.150736542,-2.523751831,-2.852767639,3.811866736
5.609707917,-0.004340973,-2.51447113,-2.90066803,3.838809572
5.619684917,0.173489227,-2.662812653,-2.769690399,3.846018024
5.629662917,0.353115692,-2.85965332,-2.450853424,3.782722606
5.639640917,0.414039001,-3.10888504,-2.050436096,3.747116581
5.649618917,0.235310669,-3.170856171,-1.524878998,3.526323287
5.659596917,0.195194092,-3.148402863,-0.989442444,3.305985128
5.669574917,0.038769379,-3.011886749,-0.428558807,3.042470625
5.679552917,-0.266296234,-2.433639221,-0.054486694,2.448771599
5.689530917,-0.412093048,-1.888023834,0.251327362,1.948748347
5.699507917,-0.625399475,-1.534159698,0.703387299,1.799867822
5.709485917,-0.734372864,-0.964294739,1.060394897,1.610467381
5.719463917,-0.728834381,-0.415236511,1.559906158,1.771137527
5.729441917,-0.922980652,-0.254171448,2.316133575,2.506186575
5.739419917,-1.157393188,-0.156275024,3.011138306,3.229695771
5.749397917,-1.625020752,0.029638367,3.916755066,4.24058264
5.759375917,-2.188598785,0.625698853,5.140759735,5.622177012
5.769353917,-2.686613159,1.62996048,6.315816193,7.054374218
5.779330917,-3.365601196,3.712130585,8.305179291,9.699648857
5.789308917,-3.971541138,6.249055023,10.48000671,12.83177183
5.799286917,-4.383035431,7.737260284,12.86080582,15.63574503
5.809264917,-4.21927597,8.540789337,15.9930423,18.61517591
5.819242917,-3.39793396,8.593030701,18.76078674,20.9129924
5.829220917,-3.247197418,10.2572699,20.71721832,23.34435717
5.839198917,-2.624791718,13.29460373,22.21665024,26.0233658
5.849175917,-1.604064331,16.29346756,23.5455867,28.67829773
5.859153917,-2.642754364,17.74919037,25.94794098,31.54859031
5.869131917,-3.420237579,18.03359894,28.30014954,33.73139753
5.879109917,-2.253863068,18.88682465,29.07089676,34.74059703
5.889087917,-0.599802704,18.80629211,29.79868332,35.24199078
5.899065917,0.950673065,17.90561508,30.54727661,35.4210522
5.909043917,2.129771118,16.51021683,30.80010086,35.01098967
5.919021917,2.570754089,13.92643982,29.8560141,33.04445612
5.929000167,1.977238312,10.71726334,27.3464827,29.43805905
5.938977167,0.754281464,7.785609741,23.85963364,25.10909749
5.948955167,-0.63063858,5.024451599,19.84153931,20.4775365
5.958933167,-1.4929953,2.992726593,15.74650497,16.09775967
5.968911167,-1.985321503,1.248254242,11.86058578,12.09020824
5.978889167,-1.945504303,-0.152383118,8.355175323,8.580044423
5.988867167,-1.526525574,-1.123413849,5.301824799,5.630424957
5.998845167,-0.975222015,-1.901944885,2.723885651,3.462369906
6.008823167,-0.533490601,-2.543061676,0.568817139,2.659948843
6.018800167,-0.310604095,-2.877017212,-1.275198212,3.162251322
6.028778167,-0.385298767,-2.930306396,-2.800376587,4.071518113
6.038756167,-0.650247803,-2.871029663,-3.998036041,4.964869154
6.048734167,-0.886606293,-2.704725494,-4.956043854,5.71524115
6.058712167,-0.903221741,-2.412982178,-5.71706131,6.270811951
6.068690167,-0.962797852,-2.081271973,-6.269562378,6.675783485
6.078668167,-0.979562988,-1.663939819,-6.573879547,6.851578772
6.088645167,-0.682879944,-1.451830902,-6.74317749,6.931419815
6.098623167,-0.216150513,-1.318607941,-6.806645508,6.93656046
6.108601167,0.160765686,-1.037492523,-6.781048737,6.861840738
6.118579167,0.377065887,-0.839304657,-6.684499512,6.747528786
6.128557167,1.016536102,-1.019380188,-6.166576538,6.332388792
6.138535167,1.209784241,-0.576002197,-5.723797302,5.878538253
6.148513167,1.077758789,-0.906664581,-4.560266876,4.772801971
6.158491167,1.163680115,-1.189725952,-2.810854797,3.266573731
6.168468167,1.606309662,-0.620908813,-1.538201294,2.309073776
6.178446167,1.893861694,-0.354612579,0.353864136,1.959000262
6.188424167,2.16464859,-0.455652466,2.521955566,3.354635981
6.198402167,2.117796021,-0.542172546,4.488565979,4.992618111
6.208380167,1.601519623,-0.334853668,6.676116943,6.873683839
6.218358167,0.51837204,-0.191152496,8.943152618,8.960202431
6.228336167,-0.921783142,0.061072998,11.59533737,11.63207904
6.238314167,-3.081641693,1.294807434,14.19273605,14.58104244
6.248291167,-5.598657532,3.112327881,16.95284637,18.12265298
6.258269167,-7.216642914,5.052742767,19.43199097,21.33570757
6.268247167,-7.602540436,6.875951385,21.80545532,24.09471333
6.278225167,-6.908433838,7.773634644,23.67042709,25.85430278
6.288203167,-5.740861816,8.151149597,24.93963776,26.85859761
6.298181167,-4.636159058,7.736362152,25.46669174,27.01661819
6.308159167,-4.733157349,8.037984924,25.40337341,27.06184326
6.318137167,-5.806874542,9.317224731,24.68097565,27.01260868
6.328114167,-6.961273956,10.50395691,24.53892105,27.58534198
6.338092167,-7.575297089,11.73589508,24.86554184,28.52037044
6.348070167,-6.597979431,12.97471893,25.33257065,29.21670412
6.358048167,-5.029241638,13.95607819,25.71233093,29.6848337
6.368026167,-3.106939087,14.58447144,25.82609436,29.82192193
6.378004167,-1.129251709,14.00008667,25.77295486,29.3517093
6.387982167,0.224982147,12.02823715,25.11103134,27.84408377
6.397960167,0.840801544,8.555907898,23.3836235,24.91393898
6.407937167,1.114881592,5.17294281,20.59297668,21.26200807
6.417915167,0.695154419,2.850222931,17.09041031,17.34039028
6.427893167,-0.057031403,1.064586182,13.51329895,13.55528845
6.437871167,-0.384700012,0.10418335,10.16865417,10.17646186
6.447849167,-0.462837524,-0.687669983,7.101532288,7.149746108
6.457827167,-0.248333588,-1.375040588,4.309538269,4.530400234
6.467805167,0.227526855,-2.070943451,1.771266632,2.734586025
6.477783167,0.602497101,-2.576292572,-0.409099274,2.677246419
6.487760167,0.536783752,-2.590812378,-2.139201508,3.402444513
6.497738167,0.239951019,-2.33664093,-3.540138245,4.248534585
6.507716167,0.171094208,-2.094893646,-4.573439484,5.033309183
6.517694167,0.667012939,-1.847158813,-5.379962311,5.727206685
6.527672167,0.272882538,-2.15881073,-5.375771027,5.799469181
6.537650167,-0.079933777,-2.4923172,-5.383255463,5.932745891
6.547628167,0.445174255,-2.379002838,-5.699996796,6.192559898
6.557606167,0.447120209,-2.284399567,-5.297932892,5.786751316
6.567583167,0.40011795,-1.957928467,-5.073100433,5.45251559
6.577561167,0.492475891,-1.748963013,-4.85814743,5.186810251
6.587539167,0.371677094,-1.698667603,-4.384682007,4.716890055
6.597517167,0.267194366,-1.495689697,-3.822900238,4.113763086
6.607495167,0.107775879,-1.397643585,-3.181633759,3.476753745
6.617473167,-0.289647675,-1.531315613,-2.295626221,2.774657281
6.627451167,-0.629441071,-1.655108185,-1.369202728,2.238368887
6.637428167,-0.723295898,-1.715881805,-0.251327362,1.878981844
6.647406167,-0.837508392,-1.828298035,0.769699402,2.153260593
6.657384167,-0.869841156,-1.819017334,2.076481934,2.894343608
6.667362167,-0.744252319,-1.54808075,3.448528748,3.852637544
6.677340167,-0.407003632,-0.961001587,5.1518367,5.256481465
6.687318167,-0.229622498,0.000299377,6.887477417,6.891304067
6.697296167,-0.13576767,1.435514832,8.585546265,8.70578775
6.707274167,-0.295635223,3.497327271,10.407258,10.98315607
6.717252167,-0.970431976,6.231541443,12.41667938,13.92651334
6.727229167,-1.707499237,9.082363129,14.3858345,17.09845338
6.737207167,-2.340383148,9.767937469,16.99954926,19.74524425
6.747185167,-3.127895508,10.77624069,19.16719162,22.21018524
6.757163167,-4.07303009,12.80377441,20.68997498,24.66984552
6.767141167,-4.137845306,13.504617,21.85395447,26.02098711
6.777119167,-3.807931366,14.49585571,22.55749146,27.08266226
6.787097167,-4.608017578,15.04192017,24.06934753,28.75459405
6.797074167,-6.641688538,14.99491791,26.15346359,30.87010281
6.807052167,-7.527845764,15.68004318,27.34857834,32.4110622
6.817030167,-7.890691223,15.76431793,27.71292068,32.84482761
6.827008167,-8.407416687,15.14595383,28.07172455,32.98645619
6.836986167,-8.625064087,13.86521713,28.36780884,32.73176675
6.846964167,-8.23153244,11.64308807,27.8148587,31.25677512
6.856942167,-7.277266846,8.896300049,25.82594467,28.26804177
6.866920167,-6.145171051,5.980513458,22.6498494,24.21869827
6.876897167,-5.15887207,3.888912964,19.04324936,20.10927525
6.886875167,-4.118385773,2.411485291,15.38365952,16.10693462
6.896853167,-3.112028503,0.927621002,12.04290665,12.47304304
6.906831167,-2.059417419,-0.355361023,9.047335968,9.285567817
6.916809167,-1.197360077,-1.383123779,6.398893433,6.65526406
6.926783042,-0.403560791,-2.138303375,4.006568298,4.559363132
6.936761042,0.064066772,-2.589165802,2.050136719,3.30317191
6.946739042,0.332458649,-2.792143707,0.439486084,2.846004788
6.956717042,0.475112,-2.976560211,-0.879271545,3.139866327
6.966694042,0.628243561,-3.099304962,-1.975442047,3.728639497
6.976672042,0.750988312,-2.919977875,-2.772534485,4.095998255
6.986650042,0.872236176,-2.525248718,-3.37802536,4.306823931
6.996628042,1.150956573,-2.291285248,-3.702251129,4.503482269
7.006606042,1.47548172,-2.074985046,-3.893553314,4.652135709
7.016584042,1.772314453,-1.862277374,-3.940405884,4.704888316
7.026562042,2.023941193,-1.469344482,-3.813769226,4.560717802
7.036539042,2.203867035,-0.986448669,-3.669020233,4.39224548
7.046517042,2.243684235,-0.588725739,-3.475921783,4.178845437
7.056495042,2.247426453,-0.235759735,-3.198847961,3.916520981
7.066473042,2.110461273,-0.004490662,-2.765349426,3.478681417
7.076451042,1.677411804,0.313448181,-2.141895905,2.738554033
7.086429042,1.295106812,0.753682709,-1.542691956,2.150636591
7.096407042,1.080602875,0.922381897,-0.873433685,1.667746186
7.106385042,0.866548004,0.719104614,-0.125289459,1.133011182
7.116362042,0.728684692,0.4843927,0.770896912,1.166147382
7.126340042,0.48094986,0.207019501,1.685794373,1.765240071
7.136318042,0.137264557,0.265547791,2.525248718,2.542879918
7.146296042,-0.263601837,0.614023132,3.674558716,3.734821561
7.156274042,-0.64470932,0.743354187,5.149142303,5.242317428
7.166252042,-1.125509491,1.283281403,6.724017334,6.937289952
7.176230042,-2.091600494,2.691403198,8.312514038,8.984226925
7.186208042,-3.373235321,4.634961548,10.06701553,11.58474803
7.196185042,-4.382586365,6.561156006,12.20202576,14.53083838
7.206163042,-4.939428406,8.594677277,14.47519867,17.54416732
7.216141042,-5.161865845,9.804012451,17.00523743,20.29634497
7.226119042,-4.794679413,10.07240433,19.44097229,22.41414025
7.236097042,-4.818180542,11.3866713,20.83367615,24.22629168
7.246075042,-3.909869385,13.23682388,21.43138321,25.49126853
7.256053042,-2.958447876,14.96872238,21.94062424,26.72463387
7.266031042,-4.466412048,15.77509552,23.16986801,28.38389083
7.276008042,-6.039490814,15.57855423,24.90730499,29.99234308
7.285986042,-5.506598969,15.03593262,26.19223297,30.69910373
7.295964042,-5.361999664,13.8378241,26.81942871,30.65156069
7.305942042,-6.064488831,12.34363129,27.37312729,30.63382698
7.315920042,-6.864275665,10.06551865,27.51473282,30.09141851
7.325898042,-7.150779877,7.521109772,26.69234299,28.6388184
7.335876042,-6.959028625,4.256548462,24.74803619,26.05785063
7.345854042,-6.778054962,1.821412354,22.38295441,23.45754079
7.355831042,-5.727988586,0.076490936,19.62778381,20.44665258
7.365809042,-4.205504608,-1.836081848,17.43259872,18.02645178
7.375787042,-3.612587585,-3.95253067,16.02642288,16.89732281
7.385765042,-2.858306122,-4.458478546,13.36570587,14.37671862
7.395743042,-1.508712616,-4.151017914,10.21685394,11.13064544
7.405721042,-0.82134201,-4.388723602,7.670050049,8.874974102
7.415699042,-0.469274139,-4.594096527,5.42097702,7.121301354
7.425677042,-0.267344055,-4.499193878,3.361559601,5.622659633
7.435654042,0.105979614,-4.15146698,1.369651794,4.372854423
7.445632042,0.116457825,-3.97827713,-0.280516663,3.989854753
7.455610042,-0.176183624,-3.547023926,-1.742376709,3.955792714
7.465588042,-0.009280701,-2.784060516,-3.008144531,4.098781845
7.475566042,0.60848465,-1.982627106,-4.003574524,4.50884384
7.485544042,1.19466568,-1.287322998,-4.792434082,5.104101392
7.495522042,1.690584412,-0.638721771,-5.3694841,5.665456792
7.505500042,2.117496643,-0.071102142,-5.796995087,6.172033667
7.515477042,2.504741364,0.325423279,-6.036347351,6.543479117
7.525455042,2.84453476,0.714763641,-6.102659454,6.770872726
7.535433042,2.941383362,1.184337158,-5.756279755,6.571845038
7.545411042,3.184028778,1.511107635,-5.707181854,6.707712745
7.555389042,3.075953522,0.802780609,-5.443430328,6.303719578
7.565367042,2.799179077,-0.177381134,-4.217928772,5.065351982
7.575345042,2.422861633,-0.605341187,-3.026107178,3.923521517
7.585322042,1.704355774,-0.75817337,-1.866019592,2.638500442
7.595300042,1.32459549,-0.800235901,-0.413140869,1.601754065
7.605278042,1.295106812,-0.412242737,1.001716919,1.688396432
7.615256042,1.188528442,-0.005538483,2.32257019,2.609015681
7.625234042,0.645158386,0.46807663,3.754941559,3.838607975
7.635212042,0.161813507,1.494342499,6.067183228,6.250596406
7.645190042,-0.238903198,1.966610413,6.027216339,6.344443873
7.655168042,-1.878144379,2.875220947,9.397457886,10.00532541
7.665145042,-2.952310638,5.337151337,11.59458893,13.10098526
7.675123042,-3.198548584,8.93477005,12.75258087,15.89619916
7.685101042,-3.708388367,11.62258072,14.31607956,18.80921744
7.695079042,-3.695066071,13.56539063,16.21967102,21.46511272
7.705057042,-2.76729538,15.81640961,16.97724564,23.36757595
7.715035042,-1.520238647,18.13523758,16.41381729,24.5073737
7.725013042,-0.377514954,19.96218842,15.39518555,25.21196585
7.734991042,0.351469116,22.69580383,14.78355743,27.08831136
7.744968042,0.061222687,24.98229904,16.16219055,29.75458649
7.754946042,-2.038011932,25.3716394,20.47008224,32.66340224
7.764924042,-1.492396545,24.54850113,21.67537582,32.7822829
7.774902042,1.447789307,23.10160995,19.43468536,30.22395526
7.784880042,3.853586426,21.06374771,17.2577623,27.50203548
7.794858042,4.927752686,18.49179611,15.47392181,24.61039468
7.804836042,4.845124512,16.41157196,13.38321945,21.72384608
7.814814042,4.651876373,13.72795258,11.06528961,18.23560446
7.824791042,4.461472321,10.52491333,9.518406372,14.87543598
7.834769042,3.42487793,7.832162933,8.336464233,11.94023454
7.844747042,1.978286133,5.778733063,8.187523956,10.21483824
7.854725042,0.852926331,4.3608815,8.148155823,9.281013635
7.864703042,0.935853882,3.18612442,7.250173187,7.974473183
7.874681042,1.690135345,1.522933044,5.866600342,6.29228751
7.884659042,1.234183502,-0.561482391,5.44208313,5.608452566
7.894636042,1.444795532,-1.882036285,4.921016693,5.463140123
7.904614042,2.311942291,-2.321372681,3.618126068,4.881053629
7.914592042,1.946552124,-2.657872925,2.434687042,4.096468558
7.924570042,0.999471588,-2.668800201,1.509011993,3.22467908
7.934547792,0.204175415,-2.327659607,0.553249512,2.401202171
7.944525792,-0.65054718,-1.61588974,-0.12992981,1.746766453
7.954503792,-1.73878418,-0.642164612,-0.939296722,2.077985598
7.964481792,-2.338586884,0.109272766,-1.115031281,2.593110855
7.974458792,-2.322869568,0.353115692,-1.075663147,2.584079126
7.984436792,-1.336121521,0.486338654,-1.169967041,1.841349745
7.994414792,0.192499695,0.443677368,-1.160985718,1.257693753
8.004392792,1.563049622,0.395627289,-0.801134033,1.800405735
8.014370792,2.572400665,0.498014374,-0.376167755,2.647029595
8.024348792,3.391197968,0.298628998,-0.182021484,3.409183884
8.034326792,4.012855225,-0.341140594,0.174986115,4.031129383
8.044304792,3.368894348,-0.809516602,0.925824738,3.586351586
8.054281792,1.986968079,-0.23052063,1.42862915,2.458081194
8.064259792,1.977388,0.376018066,1.576521606,2.556730973
8.074237792,2.702629852,0.002544708,2.578088837,3.73507117
8.084215792,2.360441437,-0.084574127,3.245700531,4.014151031
8.094193792,2.520159302,0.233364716,3.77006012,4.54081659
8.104171792,2.443518677,0.891246643,4.530778198,5.224275565
8.114149792,1.381028137,1.597028961,6.020779724,6.380245192
8.124127792,-0.143850861,3.307521973,7.353757782,8.064623251
8.134104792,-2.301763458,5.888305206,8.954828339,10.96171537
8.144082792,-4.363426208,8.31116684,11.36182297,14.73791042
8.154060792,-5.823939056,10.29828461,14.47160614,18.69225284
8.164038792,-7.037315826,12.1258342,17.26614487,22.24138997
8.174016792,-7.229516144,12.67294647,20.10484177,24.840977
8.183994792,-6.603817291,12.43703705,22.53773254,26.5751704
8.193972792,-6.223158875,12.25531494,24.425457,28.02719038
8.203950792,-6.675817566,12.73372009,25.52716599,29.29761715
8.213927792,-7.229665833,13.12485672,26.11229919,30.10618045
8.223905792,-6.876101074,13.03040314,27.0623735,30.81305294
8.233883792,-6.094875641,12.64764908,28.00616089,31.32819152
8.243861792,-4.528532867,11.64099243,27.39857437,30.11149602
8.253839792,-2.653831329,10.39857605,25.62640961,27.78283776
8.263817792,-0.622405701,9.131011963,22.99727692,24.75151539
8.273795792,0.991388397,7.898475037,19.84258713,21.37982747
8.283772792,2.106419678,7.156168671,17.09684692,18.653416
8.293750792,3.086581421,5.780679016,14.05607025,15.50858942
8.303728792,3.385509796,4.699776764,10.91051147,12.35268549
8.313706792,3.083437958,4.295317841,8.492589569,10.0040703
8.323684792,2.741698608,3.866908722,6.074667664,7.705289193
8.333662792,2.2348526,3.448977814,4.170776825,5.855373039
8.343640792,2.133363647,2.984643402,2.566862183,4.477512496
8.353618792,2.059716797,2.539918213,1.40063736,3.557443299
8.363596792,1.956132202,2.289339294,0.629141693,3.076255332
8.373573792,1.844614105,2.235451355,-0.146096191,2.901928334
8.383551792,1.460662537,2.229763184,-0.653540955,2.744539065
8.393529792,0.983454895,2.309247894,-1.023272095,2.710515661
8.403507792,0.501008148,2.484982452,-1.350940704,2.872488075
8.413485792,-0.249381409,2.760409698,-1.578018494,3.189387897
8.423463792,-0.820892944,2.756068726,-1.553020477,3.268279769
8.433441792,-1.068029022,2.554138641,-1.2952565,3.056468484
8.443418792,-0.836011505,2.159110107,-1.035995636,2.536524916
8.453396792,-0.101638641,1.518592072,-0.980610809,1.810538553
8.463374792,0.52301239,0.783321075,-0.639021149,1.138192381
8.473352792,0.851429443,0.36389328,-0.124241638,0.934230379
8.483330792,0.947679291,0.307909698,0.143551483,1.006733057
8.493308792,0.739312592,0.37796402,0.388142853,0.916566846
8.503286792,0.456101532,0.604293365,0.938997345,1.206198613
8.513264792,0.300125885,1.106049957,1.592987366,1.962404342
8.523241792,-0.002245331,2.087708588,2.380050659,3.165939565
8.533219792,0.01407074,3.36170929,3.523672485,4.87006726
8.543197792,0.049397278,4.446054382,5.259313202,6.88695978
8.553175792,-0.265996857,5.375621338,7.405849457,9.155034968
8.563153792,-0.563428345,6.913223877,9.294921112,11.59765814
8.573131792,-0.834514618,9.276659088,11.28069168,14.62897205
8.583109792,-1.418001251,11.03565125,13.35627548,17.38351002
8.593087792,-1.696871338,11.68350403,15.7116275,19.65296104
8.603064792,-2.854563904,12.70797363,17.51896912,21.83014906
8.613042792,-4.959486694,13.98691406,17.97237625,23.30743618
8.623020792,-6.108497314,14.75287125,17.98734512,24.05214198
8.632998792,-6.544690247,14.75347,18.03120392,24.19963145
8.642976792,-6.623426514,14.33658691,18.03434738,23.97175815
8.652954792,-7.353907471,14.75062592,17.81954407,24.27338194
8.662932792,-8.188571777,15.29698975,17.52271133,24.65960291
8.672910792,-8.331075439,14.88115448,17.02439758,24.09742081
8.682887792,-7.931855621,14.00472702,16.1482695,22.79941491
8.692865792,-7.443271637,13.25134369,15.06991196,21.40333265
8.702843792,-6.609056396,12.40859619,13.64038467,19.58859311
8.712821792,-5.355563049,11.05645798,12.25396774,17.35185996
8.722799792,-4.305496674,9.32321228,10.94823303,15.01077597
8.732777792,-2.916684723,7.472011871,9.572743378,12.48901225
8.742755792,-1.511407013,5.246290283,8.299491119,9.934257181
8.752732792,-1.00276474,3.205134888,7.324119415,8.057366318
8.762710792,0.325572968,2.450703735,6.516997833,6.970165516
8.772688792,2.198777618,1.253044281,4.547393646,5.204184082
8.782666792,1.784888306,-0.147892456,3.509152679,3.939778036
8.792644792,1.504671021,-0.660127258,3.051254883,3.465538809
8.802622792,1.834435272,-0.424367523,2.023192749,2.763792587
8.812600792,1.787582703,-0.168699188,1.292861481,2.212555568
8.822578792,1.916015625,-0.016615448,0.629441071,2.016826222
8.832555792,1.871258698,-0.097597046,0.165705414,1.881114718
8.842533792,1.65450943,-0.276624756,-0.240699463,1.694655995
8.852511792,1.355431366,-0.60728714,-0.647403717,1.620223266
8.862489792,1.203647003,-0.988095245,-0.8599617,1.778941384
8.872467792,0.880918121,-1.237326965,-1.02387085,1.831749511
8.882445792,0.411643982,-1.443148956,-1.14556778,1.887976487
8.892423792,0.027692413,-1.550625458,-1.166973267,1.940884537
8.902401792,-0.183368683,-1.713786163,-1.223555603,2.113711286
8.912378792,-0.290096741,-1.839674377,-1.039139099,2.13269032
8.922356792,-0.346828766,-1.784139862,-0.864003296,2.012447996
8.932335417,-0.662971344,-1.739382935,-0.636626129,1.967301915
8.942313417,-1.194066925,-1.557062073,-0.259260864,1.979256001
8.952291417,-1.766027527,-1.155447235,-0.013771362,2.110474162
8.962269417,-2.642754364,-0.51013916,0.521515503,2.741600082
8.972247417,-3.61094101,0.934057617,1.262324982,3.937616407
8.982224417,-4.49081131,2.894381104,2.333946533,5.830277404
8.992202417,-5.39762558,5.045707397,3.976929932,8.391036689
9.002180417,-6.343508606,7.389234009,5.819747772,11.34505817
9.012158417,-6.722520447,9.22726181,7.992180176,13.93590993
9.022136417,-5.378166046,8.994795227,9.717492371,14.29197919
9.032114417,-4.136498108,7.920030212,10.71172485,13.94914135
9.042092417,-6.626719666,11.04612946,13.02965469,18.3221803
9.052070417,-10.63613205,15.5391861,14.8928302,24.00812364
9.062047417,-11.05735611,16.41112289,15.26944702,24.99492131
9.072025417,-11.51016449,16.39181305,15.8881105,25.56574812
9.082003417,-13.05869431,18.6193309,16.44629974,28.06581115
9.091981417,-13.83902161,20.2238443,16.71768539,29.66485129
9.101959417,-14.69179825,20.78038696,17.05298813,30.63458539
9.111937417,-15.19086044,21.05761047,17.48169662,31.30167594
9.121915417,-14.15785858,19.9996106,17.32527191,30.00990554
9.131893417,-12.68731659,18.31231934,16.91467575,27.97168743
9.141870417,-11.26003464,16.24856094,16.0129509,25.44049349
9.151848417,-9.541458435,13.3294812,14.73850113,22.04399949
9.161826417,-7.503446503,9.971663818,13.21631653,18.17709579
9.171804417,-5.723198547,6.408024445,11.35987701,14.24305391
9.181782417,-3.913312225,2.973716125,9.31976944,10.53637047
9.191760417,-1.93068512,0.192649384,7.333699493,7.586027094
9.201738417,-0.711769867,-1.82650177,5.733078003,6.058952752
9.211715417,-0.153580627,-3.053500214,4.474495239,5.419276539
9.221693417,0.56866745,-3.776796112,3.162174225,4.958519675
9.231671417,1.660197601,-4.392765198,1.908980255,5.069205833
9.241649417,2.554438019,-4.627177734,1.185235291,5.416706571
9.251627417,3.163671112,-4.834047546,0.510588226,5.799787145
9.261605417,3.331771545,-4.847369843,-0.026494904,5.882040292
9.271583417,3.252436523,-4.58092392,-0.352367249,5.629153575
9.281561417,2.681374054,-4.032913513,-0.492326202,4.867909542
9.291538417,1.875000916,-3.124752045,-0.473465424,3.674761663
9.301516417,1.324445801,-2.630479889,-0.521665192,2.990938932
9.311494417,0.87403244,-2.478545837,-0.411045227,2.66009029
9.321472417,0.458945618,-2.457888794,-0.245190125,2.512362753
9.331450417,0.20597168,-2.415377197,-0.253722382,2.437385153
9.341428417,0.164657593,-2.224973145,-0.340242462,2.256852354
9.351406417,0.361049194,-1.957629089,-0.434396667,2.03749077
9.361383417,0.662073212,-1.282233582,-0.180674286,1.454340776
9.371361417,0.14280304,-0.31704071,0.218695221,0.410773806
9.381339417,-0.676143951,0.964743805,0.685574341,1.363052981
9.391317417,-1.266216888,2.07812851,1.174457703,2.702087009
9.401295417,-1.269060974,2.904260559,1.947300568,3.71984202
9.411273417,-1.301992493,3.145109711,3.358266449,4.781720724
9.421251417,-1.00396225,3.126398621,5.022355957,6.000530634
9.431229417,-0.456251221,3.10424469,6.46116394,7.182697247
9.441207417,-0.458047485,3.629203033,7.838150482,8.649712431
9.451184417,-1.327439575,5.576952667,8.689729614,10.41037452
9.461162417,-2.957849121,8.351882172,9.550589447,13.02753108
9.471140417,-4.511767731,10.96918945,10.85871918,16.08076327
9.481118417,-5.41394165,13.71223526,12.08990891,19.06572992
9.491096417,-6.231092377,16.34675674,13.70415207,22.22266303
9.501074417,-6.893464966,18.15978653,15.73333237,24.99670885
9.511052417,-6.624324646,19.50488937,17.52570511,27.04575246
9.521029417,-5.403912506,20.90268265,19.59964233,29.15939629
9.531007417,-4.338877258,22.6059906,21.23588974,31.31804081
9.540985417,-4.239783325,23.63375336,23.14681595,33.35123909
9.550963417,-3.86945343,23.47119141,24.77378265,34.34544807
9.560941417,-3.496878204,22.33026398,25.81322113,34.31022051
9.570919417,-3.309916992,20.57561279,26.74458435,33.90551849
9.580897417,-2.729873199,18.29794922,27.19978775,32.89522164
9.590874417,-1.38656662,14.55513245,25.89674744,29.73913205
9.600852417,0.079634399,10.37597305,23.31132385,25.51636687
9.610830417,1.111289063,6.657705231,20.05619293,21.16154241
9.620808417,1.715732117,3.701502686,16.5118634,17.00842414
9.630786417,2.141596527,1.49539032,13.37827972,13.63088391
9.640764417,2.528691559,-0.313747559,9.846524048,10.17087776
9.650742417,2.818638611,-1.903142395,6.632407837,7.453556756
9.660720417,3.056344299,-2.666704559,5.059179382,6.484431332
9.670697417,3.339255981,-2.984044647,2.373164978,5.068240817
9.680675417,3.501518555,-3.102598114,0.443527679,4.699304635
9.690653417,3.725153503,-3.193459167,-0.811612244,4.973295136
9.700631417,3.840862885,-3.335513763,-1.814077606,5.400810803
9.710609417,3.42248291,-3.326981506,-2.810405731,5.539004928
9.720587417,3.009940796,-3.151696014,-3.541635132,5.615702162
9.730565417,2.529589691,-2.896626434,-3.879931641,5.462887354
9.740542417,1.815424805,-2.588567047,-4.165088654,5.22918828
9.750520417,1.216969299,-2.297272797,-3.970643005,4.745996466
9.760498417,0.950822754,-2.219135284,-3.782184906,4.487042231
9.770476417,0.959205322,-2.049388275,-3.710034943,4.345621524
9.780454417,0.671952667,-1.828298035,-3.518283691,4.021506462
9.790432417,0.142653351,-1.403182068,-3.079995117,3.387571374
9.800410417,-0.310005341,-0.805175629,-2.903212738,3.028705219
9.810388417,-0.754281464,-0.61896286,-2.956950989,3.113778203
9.820365417,-1.156345367,-0.386047211,-2.323019257,2.623468224
9.830343417,-1.23448288,1.2063414,-1.790127411,2.486717455
9.840321417,-0.140707397,4.09877655,-0.23635849,4.107996241
9.850299417,-2.265987854,-1.510209503,-1.186283112,2.970303237
9.860277417,-2.513273621,-1.399290161,-1.222358093,3.12549461
9.870255417,-1.78204422,0.388591919,0.628692627,1.929232931
9.880233417,-1.624721375,2.228116608,2.305655365,3.594477684
9.890210417,-1.794169006,4.10236908,3.987557831,5.995756161
9.900188417,-2.834804993,6.489604797,6.173611908,9.394922765
9.910166417,-4.64409256,8.957822113,8.586893463,13.24933629
9.920144417,-6.172713776,10.61697189,10.70723419,16.29316886
9.930122458,-6.641838226,11.82391205,13.08024948,18.84175782
9.940100458,-6.918313293,12.97965866,14.90196121,20.93807646
9.950078458,-7.153474274,14.47070801,16.87470886,23.35228862
9.960056458,-7.217840424,16.50093613,18.67007538,25.94127653
9.970033458,-7.723638611,18.84131927,20.18282959,28.67048161
9.980011458,-8.32404007,20.77978821,22.12758545,31.47569346
9.989989458,-8.260721741,21.41192368,25.3942424,34.22831498
9.999967458,-8.150101776,21.87266556,28.87824738,37.13207278
10.00994546,-8.065677338,21.58571228,30.22290115,38.00555064
10.01992346,-7.093748474,20.30707123,30.6084993,37.41094276
10.02990146,-5.471122742,18.69492371,30.52317673,36.20908275
10.03987846,-3.914958801,15.8961937,28.832742,33.15634009
10.04985646,-1.928589478,12.62669266,25.90812378,28.88570066
10.05983446,-0.091010742,9.195827179,21.99990097,23.84464643
10.06981246,0.929566956,5.068160706,17.71116943,18.44548374
10.07979046,2.203867035,1.476529541,13.94200745,14.19213659
10.08976846,3.959116974,-1.059496765,10.58224411,11.34817303
10.09974646,5.336103516,-2.705623627,7.486980743,9.583803034
10.10972446,6.10670105,-4.005969543,4.89796463,8.79372772
10.11970146,6.379433899,-4.956792297,2.590962067,8.484105797
10.12967946,6.130202179,-5.389093323,0.483344879,8.176510739
10.13965746,5.143454132,-5.426964569,-1.367556152,7.601136407
10.14963546,3.982318726,-4.963977356,-2.752625885,6.933749555
10.15961346,3.192710724,-4.034709778,-3.56872879,6.26163796
10.16959146,2.618205414,-3.205733643,-4.248165894,5.931158507
10.17956946,1.930834808,-2.505340118,-5.176834717,6.066668761
10.18954646,1.337468719,-1.757345581,-5.439987488,5.871162571
10.19952446,0.667312317,-1.025517426,-5.424868927,5.561132492
10.20950246,0.398171997,-0.415086823,-5.709277496,5.738178068
10.21948046,0.331859894,0.11346405,-5.976022797,5.986305501
10.22945846,0.112266541,0.607436829,-5.988596649,6.020371509
10.23943646,-0.291443939,1.125958557,-5.768105164,5.884195733
10.24941446,-0.768501892,1.622625732,-5.392985229,5.683994996
10.25939146,-1.22160965,1.875449982,-5.224735107,5.683968659
10.26936946,-1.469494171,1.916913757,-4.626429291,5.218986439
10.27934746,-1.593137054,1.928589478,-3.699556732,4.465900028
10.28932546,-1.483564911,1.645228729,-3.187920685,3.882084583
10.29930346,-1.151255951,0.92792038,-2.590662689,2.982944797
10.30928146,-0.641715546,0.200433197,-1.517394562,1.659656158
10.31925946,-0.0490979,-0.385149078,-0.195643158,0.434771965
10.32923746,0.29608429,-0.835861816,1.574575653,1.807102479
10.33921446,0.410446472,-0.958606567,3.91510849,4.051600591
10.34919246,0.401465149,-0.291743317,6.13244751,6.152495501
10.35917046,-0.417930908,1.086889801,8.43166626,8.51169734
10.36914846,-2.451003113,3.152145081,10.93595856,11.64210567
10.37912646,-4.816234589,5.637726288,13.28517334,15.21433219
10.38910446,-6.736291809,7.533384247,15.41030411,18.42842853
10.39908246,-8.370293884,8.780440979,17.7740387,21.5191639
10.40905946,-9.751172333,10.60424835,19.94227982,24.6014221
10.41903746,-11.28518234,13.14686096,22.11860413,28.09676035
10.42901546,-12.05323517,14.88444763,24.03027878,30.72916461
10.43899346,-12.11415848,16.85450089,26.31138519,33.51292328
10.44897146,-12.11640381,18.095121,28.38906464,35.77959804
10.45894946,-12.39766891,18.59268631,30.25224014,37.61101185
10.46892746,-12.19514008,18.67726044,31.75631241,38.80753634
10.47890446,-11.46346161,17.32512222,32.12304977,38.25521061
10.48888246,-10.59406952,14.95090942,31.35888885,36.32002081
10.49886046,-9.228609009,11.75625275,29.15098022,32.75906517
10.50883846,-8.370293884,7.735014954,26.30988831,28.67232984
10.51881646,-7.353308716,4.196672974,22.57036469,24.10611074
10.52879446,-6.044430542,1.505120087,18.30438583,19.33522867
10.53877246,-4.739593964,-0.501157837,14.36772217,15.13758073
10.54875046,-3.250191193,-1.953737183,10.84330124,11.48729792
10.55872746,-1.690135345,-3.039728851,7.61960495,8.375851513
10.56870546,-0.288749542,-3.641028442,4.904550934,6.115152024
10.57868346,0.944685516,-3.964056702,2.625839539,4.84780461
10.58866146,1.611099701,-4.228107605,0.760418701,4.588112114
10.59863946,2.152823181,-4.384232941,-0.783620453,4.94673702
10.60861746,2.499651947,-4.274511108,-1.915716248,5.309394863
10.61859546,2.500101013,-3.745960236,-2.7590625,5.281585845
10.62857246,2.590962067,-2.918930054,-3.375181274,5.159950167
10.63855046,2.41852066,-1.985022125,-4.006119232,5.083163024
10.64852846,1.920356598,-1.135838013,-4.454436951,4.981958049
10.65850646,1.425036621,-0.428858185,-4.547243958,4.784566472
10.66848446,1.034049683,0.061821442,-4.472549286,4.590945192
10.67846246,0.94303894,0.419278107,-4.365222473,4.485563935
10.68844046,0.643362122,0.583935699,-4.781057739,4.859363006
10.69841746,0.352067871,1.013991394,-5.343288574,5.450033314
10.70839546,0.183817749,1.744023285,-4.565356293,4.890591402
10.71837346,0.031734009,2.445614319,-3.504063263,4.273230136
10.72835146,-0.569266205,0.663570099,-3.671415253,3.77407992
10.73832946,-0.650247803,-0.624651031,-3.610342255,3.721233977
10.74830746,-0.401016083,0.020207977,-3.036286011,3.062720196
10.75828546,-0.322130127,1.141376495,-2.613714752,2.870193883
10.76826346,-0.481847992,0.928519135,-2.443668365,2.658164846
10.77824046,-0.546363831,-0.009131012,-1.846709747,1.925859211
10.78821846,-0.212857361,-0.191751251,-0.502954102,0.578826076
10.79819646,-0.151784363,0.698148193,1.209784241,1.405000819
10.80817446,-0.257763977,2.087558899,2.897374878,3.580380651
10.81815246,-1.012045441,3.160527649,4.886139221,5.906566472
10.82813046,-2.261646881,4.375401306,8.550519104,9.867652211
10.83810846,-4.003275146,6.592590637,11.38637192,13.75274259
10.84808546,-5.906417542,9.251361694,12.22208405,16.42719695
10.85806346,-6.855593719,11.32350266,13.1172226,18.63551465
10.86804146,-7.303462372,12.58343262,14.79702942,20.751757
10.87801946,-7.364984436,13.82300491,17.18651047,23.25284074
10.88799746,-8.03259613,15.67166061,18.71842484,25.70025244
10.89797546,-9.220675507,17.54905655,19.37645645,27.72070178
10.90795346,-10.23691223,19.34142929,19.92955627,29.59852146
10.91793046,-11.65266815,20.70464447,20.93830856,31.66827661
10.92790846,-13.03773788,21.32645142,22.5595871,33.67098319
10.93788567,-12.82637741,21.37465118,23.9516922,34.56986014
10.94786367,-11.58006912,21.47898422,24.14434158,34.3277438
10.95784167,-10.08632538,20.68728058,23.72461441,33.05381773
10.96781967,-8.153694305,18.30528397,23.27824265,30.7155129
10.97779767,-5.94054657,15.34489014,22.3365509,27.74305775
10.98777467,-3.975582733,12.15397568,20.16112473,23.87457503
10.99775267,-2.609373779,9.154363403,17.52001694,19.93896172
11.00773067,-1.63579834,6.435118103,14.84582794,16.2630006
11.01770867,-0.907113647,4.080514526,12.14514404,12.84437534
11.02768667,-0.386496277,2.197879486,10.047556,10.29239696
11.03766467,0.214054871,0.549507294,8.332722015,8.353564146
11.04764267,1.224304047,-0.85412384,7.368127899,7.517829253
11.05761967,2.583327942,-2.146536255,7.056625671,7.815188226
11.06759767,3.106939087,-3.248993683,5.122946777,6.815688822
11.07757567,3.255579987,-4.052373047,1.602118378,5.439421997
11.08755367,3.720812531,-4.15266449,-0.773291931,5.629125035
11.09753167,3.992796936,-3.816613312,-1.740730133,5.791295705
11.10750967,3.385958862,-3.484304352,-2.532134399,5.478758879
11.11748767,2.090253296,-3.165018311,-3.427272949,5.112015221
11.12746467,1.348845062,-2.804867249,-3.467838593,4.659674644
11.13744267,1.247056732,-2.434537354,-3.123105469,4.151615395
11.14742067,1.531315613,-2.061812439,-2.993774414,3.94444968
11.15739867,1.857038269,-1.375489655,-3.295846252,4.025315571
11.16737667,1.933978271,-0.599203949,-3.798201599,4.304143668
11.17735467,1.93412796,0.089813232,-4.299359436,4.71523159
11.18733267,2.271676025,0.437390442,-4.45802948,5.022534142
11.19730967,2.349065094,0.612077179,-4.293820953,4.932508861
11.20728767,1.614243164,0.698896637,-4.934338989,5.238505394
11.21726567,0.677341461,0.418829041,-4.708608398,4.775479271
11.22724367,-1.455722809,-0.036673737,-3.16277298,3.481897009
11.23722167,-2.474204865,0.430654449,-1.780098267,3.078295438
11.24719967,-1.920805664,1.476828918,-1.064137115,2.646300409
11.25717767,-1.334924011,2.364333344,-1.234183502,2.982499487
11.26715467,-1.084045715,3.237168274,-0.932710419,3.538977574
11.27713267,-1.345252533,4.443359985,0.484841766,4.667785757
11.28711067,-1.939666443,6.254443817,2.073787537,6.868840377
11.29708867,-3.048261108,8.270002441,4.024381256,9.689194015
11.30706667,-3.868405609,9.248667297,6.328090668,11.85525792
11.31704467,-5.287903748,10.24843826,9.614805908,15.01455645
11.32702267,-6.526577911,11.27964386,13.33561844,18.64578515
11.33699967,-7.879165192,12.87008652,17.43409561,23.05792837
11.34697767,-8.37194046,14.94761627,19.78839981,26.17444147
11.35695567,-8.502469025,17.03861801,21.72058182,28.8858124
11.36693367,-9.008416901,19.3174791,24.4759021,32.45591406
11.37691167,-9.60986618,20.71422455,26.95175354,35.32457566
11.38688967,-9.271120605,20.46544189,28.60835861,36.37617588
11.39686767,-8.133935394,19.20895477,29.82637573,36.39721882
11.40684467,-6.644981689,17.37212448,30.45791245,35.68796606
11.41682267,-5.26305542,15.19999146,30.50955505,34.49017892
11.42680067,-3.757635956,12.40799744,29.62788849,32.34022271
11.43677867,-2.050436096,9.304201813,27.77998123,29.36834719
11.44675667,-0.759969635,6.387367401,24.97137177,25.78653571
11.45673467,0.032632141,3.695664825,21.62358353,21.93714585
11.46671267,0.647403717,1.275647278,18.20125031,18.25737988
11.47668967,1.057251434,-0.641715546,14.85810242,14.90948647
11.48666767,1.319057007,-2.090402985,11.87705154,12.13153121
11.49664567,1.608255615,-3.090323639,9.159752197,9.799879929
11.50662367,2.118245087,-3.671564941,6.65081955,7.886745339
11.51660167,2.674188995,-4.104913788,4.307891693,6.52376692
11.52657967,3.35347641,-4.297263794,2.18216217,5.871465906
11.53655767,3.999083862,-4.201163635,0.337548065,5.810024641
11.54653567,4.267475739,-3.922892303,-1.155596924,5.910654571
11.55651267,4.143832855,-3.303181,-2.324665833,5.786745777
11.56649067,3.772455139,-2.449356537,-3.348686371,5.607536503
11.57646867,3.345542908,-1.564845886,-4.122277679,5.534850789
11.58644667,2.942880249,-0.836310883,-4.642595673,5.560004913
11.59642467,2.604434052,-0.188907166,-5.099595337,5.729278772
11.60640267,2.097288666,0.326022034,-5.473817139,5.870909996
11.61638067,1.600172424,0.565523987,-5.535488892,5.789819206
11.62635767,1.331780548,0.646056519,-5.518274689,5.71335138
11.63633567,1.19002533,0.469274139,-5.53563858,5.681520307
11.64631367,1.123713226,0.357007599,-5.452411652,5.57843873
11.65629167,0.814306641,0.53124527,-5.194198608,5.284412553
11.66626967,0.341439972,0.777183838,-4.835245056,4.909194509
11.67624767,0.036823425,1.23672821,-4.509223022,4.675889744
11.68622567,-0.390388184,1.766476593,-4.211043091,4.583200454
11.69620267,-0.946481781,2.201771393,-3.485052795,4.229564755
11.70618067,-1.330732727,2.30969696,-2.331701202,3.541522291
11.71615867,-1.494492188,2.648442535,-0.941841431,3.183523212
11.72613667,-1.377435608,3.171604614,0.386496277,3.479336726
11.73611467,-1.225800934,3.031046906,2.091600494,3.881317547
11.74609267,-1.605261841,3.135080566,4.799619141,5.953313332
11.75607067,-2.847079468,4.263134766,7.727979584,9.273718131
11.76604767,-4.178860016,6.214925995,10.08916946,12.5650116
11.77602567,-5.289550323,7.790848846,12.36698273,15.54409631
11.78600367,-6.224955139,8.93596756,14.95510071,18.50017892
11.79598167,-6.909182281,10.3369043,17.68362671,21.61710073
11.80595967,-7.274123383,11.48426834,20.23626846,24.37843005
11.81593767,-7.176077271,12.35066666,22.3989711,26.56593605
11.82591567,-6.602021027,11.85968765,24.29762283,27.83187648
11.83589267,-5.777086487,11.30808472,25.8786351,28.82622526
11.84587067,-5.622907104,11.56360336,27.68193512,30.52250873
11.85584867,-6.041736145,11.55986115,29.92187714,32.64125758
11.86582667,-6.270011444,10.33001862,31.69389221,33.91939168
11.87580467,-6.340814209,8.781638489,32.61552567,34.36707165
11.88578267,-5.961053925,7.372618561,32.2487883,33.61359866
11.89576067,-4.782854004,5.362598419,30.58095657,31.41381956
11.90573767,-3.056194611,2.606080627,28.02666824,28.31300257
11.91571567,-1.487307129,0.508492584,24.72243942,24.77235674
11.92569367,-0.22109024,-1.023571472,20.91884903,20.94504295
11.93567229,0.604293365,-2.183060303,17.23096802,17.37921694
11.94565029,1.193318481,-2.985990601,13.57152786,13.94727634
11.95562829,1.565744019,-3.526516571,10.17179764,10.87903216
11.96560629,1.699416046,-3.64252533,7.228917389,8.271230398
11.97558429,1.823807373,-3.43775116,4.60083252,6.025949406
11.98556129,2.120340729,-3.296295319,2.184108124,4.486840306
11.99553929,2.410587158,-3.207380219,0.277672577,4.02185534
12.00551729,2.653681641,-2.904709625,-1.297352142,4.142763189
12.01549529,2.899620209,-2.164947968,-2.771786041,4.558244719
12.02547329,2.960543518,-1.075513458,-4.125570831,5.190556984
12.03545129,3.019820251,-0.341439972,-5.187911682,6.012513886
12.04542829,3.139421539,-0.123193817,-5.912854156,6.695744066
12.05540629,2.984344025,0.013172607,-6.424639893,7.083959382
12.06538429,2.42795105,0.349223785,-6.54079834,6.985624272
12.07536229,1.676214294,0.703686676,-6.404731293,6.657736269
12.08534029,0.963546295,1.093326416,-6.373596039,6.538081567
12.09531829,0.434845734,1.543889465,-6.344556427,6.544163946
12.10529629,-0.002993774,1.841171265,-6.098617859,6.370483528
12.11527329,-0.156724091,1.966161346,-5.71706131,6.04773866
12.12525129,0.006735992,1.833986206,-5.227429504,5.539816784
12.13522929,0.063318329,1.797911224,-4.256099396,4.620700818
12.14520729,-0.152233429,1.824256439,-2.781515808,3.329852364
12.15518529,-0.504900055,1.599573669,-0.786614227,1.852652674
12.16516329,-0.979862366,1.253643036,1.339414673,2.079851625
12.17514129,-1.253643036,0.816551971,3.412304077,3.725882056
12.18511929,-1.280587006,0.164657593,5.668412476,5.81359744
12.19509629,-1.5819104,-0.509690094,7.922425232,8.094877767
12.20507429,-2.349065094,-0.413440247,10.13407608,10.41098159
12.21505229,-3.091820526,0.69620224,11.83453995,12.25154633
12.22503029,-3.810176697,2.265838165,13.41360626,14.1271477
12.23500829,-4.864584045,4.506977692,15.10149628,16.49339915
12.24498629,-5.866899719,6.562203827,17.06975327,19.2057155
12.25496429,-6.546486511,8.078700256,19.19503372,21.83051083
12.26494129,-7.269183655,9.538015594,21.6093631,24.71395043
12.27491929,-7.694000244,10.92398346,23.84705978,27.33520285
12.28489729,-7.301666107,12.1310733,25.68823105,29.33193621
12.29487529,-7.015012207,12.79748749,28.1679744,31.72413693
12.30485329,-6.793622589,12.56127869,30.46584595,33.64679479
12.31483129,-6.576274567,11.5936908,32.11796036,34.77390445
12.32480929,-6.296356659,9.9878302,33.21472961,35.25080315
12.33478629,-5.97093338,8.173902283,33.55152924,35.04525414
12.34476429,-5.233866119,6.430477753,32.43215698,33.47520284
12.35474229,-4.086202698,4.549189911,29.94462982,30.56260847
12.36472029,-2.952610016,2.899171143,26.62962341,26.94921042
12.37469829,-1.740281067,1.697919159,22.91689407,23.04551023
12.38467629,-0.770298157,0.657732239,19.07707901,19.10395023
12.39465429,-0.126936035,-0.295934601,15.43155991,15.43491922
12.40463129,0.533640289,-1.10335556,11.97255295,12.03512316
12.41460929,1.086740112,-2.10731781,8.724457397,9.04090423
12.42458729,1.569186859,-3.0058992,5.818400574,6.734356884
12.43456529,1.956281891,-3.369343414,3.133583679,4.999886054
12.44454329,2.294279022,-3.426225128,0.721349945,4.186057883
12.45452129,2.430046692,-3.387605438,-1.215322723,4.342580667
12.46449929,2.326312408,-3.121608582,-2.525398407,4.640453283
12.47447629,2.113005981,-2.686762848,-3.676953735,5.02030653
12.48445429,1.815275116,-2.071691895,-4.543202362,5.312985861
12.49443229,1.432371368,-1.350641327,-5.054389343,5.424276114
12.50441029,0.930764465,-0.619711304,-5.42681488,5.540819825
12.51438829,0.463885345,0.127385101,-5.607489166,5.628085938
12.52436629,0.039667511,0.93375824,-5.64565979,5.722495297
12.53434429,-0.175584869,1.870659943,-5.637576599,5.942429518
12.54432129,0.133971405,2.687062225,-5.90536972,6.489348448
12.55429929,0.585432587,3.07610321,-6.123466187,6.877643522
12.56427729,0.635727997,3.27623703,-5.83636322,6.723169996
12.57425529,0.451311493,3.364104309,-5.361251221,6.345383717
12.58423329,0.262404327,3.036884766,-4.698429565,5.600604029
12.59421129,0.073946228,2.43498642,-3.833677826,4.542214502
12.60418929,-0.348924408,1.837279358,-2.778222656,3.349009527
12.61416629,-0.687669983,1.541793823,-1.791175232,2.461366878
12.62414429,-0.66342041,1.1665242,-0.983305206,1.663668981
12.63412229,-0.690963135,0.736767883,0.144299927,1.020333003
12.64410029,-0.952918396,0.539777527,1.928739166,2.217982872
12.65407829,-1.643432465,0.630937958,3.928730164,4.305098567
12.66405629,-2.683320007,1.295406189,6.242917786,6.917536117
12.67403429,-3.695215759,2.615810394,8.72296051,9.827874826
12.68401129,-5.005441132,4.154460754,11.57483002,13.27744987
12.69398929,-6.824159088,6.198609924,14.84897141,17.47809669
12.70396729,-8.622220001,9.16289566,18.14841019,22.08316388
12.71394529,-9.749525757,11.91073151,21.6000824,26.52324145
12.72392329,-9.896071014,13.27873672,25.45591415,30.36874439
12.73390129,-9.045839081,13.31136887,28.8248085,33.01347196
12.74387929,-7.827971649,13.31600922,31.68176743,35.24666834
12.75385629,-7.541916504,12.68342468,34.66820709,37.67803537
12.76383429,-6.839427338,11.9134259,36.86952942,39.34551668
12.77381229,-5.78726532,11.82705551,37.63069656,39.86779409
12.78379029,-4.881049805,11.26557312,37.36604691,39.3314028
12.79376829,-3.382066956,9.689799957,35.90568375,37.3436571
12.80374629,-1.687740326,7.493117981,33.07596817,33.9560739
12.81372429,-0.396226044,5.194647675,29.25366669,29.71394242
12.82370129,0.570314026,2.985092468,24.67244339,24.85891184
12.83367929,1.452729034,0.785267029,19.72582993,19.79483347
12.84365729,2.118843842,-1.189725952,14.59629684,14.79718989
12.85363529,2.599644012,-2.518363037,9.697583771,10.35101118
12.86361329,2.490520935,-3.132835236,5.446424103,6.758763692
12.87359129,2.152523804,-3.31605423,1.910626831,4.390907568
12.88356929,2.000589752,-3.006797333,-1.361269226,3.859565191
12.89354629,1.898651733,-2.403851166,-4.252955933,5.24127971
12.90352429,1.876198425,-1.861678619,-6.319857788,6.850297094
12.91350229,1.880539398,-1.574276276,-7.869585114,8.242884451
12.92348029,1.585802307,-1.656305695,-8.654852142,8.953467659
12.93346204,1.084195404,-1.677112427,-8.72296051,8.948643798
12.94344004,0.81909668,-1.445543976,-8.614885254,8.773640333
12.95341804,0.436641998,-1.06713089,-8.591533813,8.668556849
12.96339504,0.21644989,-0.436641998,-8.289012909,8.303327152
12.97337304,0.071551208,0.066761169,-8.239615631,8.240196744
12.98335104,-0.146545258,0.181422729,-7.735613708,7.73912845
12.99332904,-0.30072464,-0.022752686,-6.635102234,6.641952623
13.00330704,-0.416134644,-0.330512695,-5.754932556,5.779416528
13.01328504,-0.621956635,-0.714314575,-4.968468018,5.057939285
13.02326304,-0.914598083,-1.158590698,-3.897445221,4.167601386
13.03324004,-0.744701385,-2.017953644,-3.086431732,3.762017796
13.04321804,-0.816551971,-2.881657562,-2.789598999,4.09299035
13.05319604,-0.946930847,-3.07385788,-2.168390808,3.879071924
13.06317404,-0.709674225,-3.222349091,-0.251776428,3.309163419
13.07315204,-1.205892334,-3.140319672,0.336500244,3.380682827
13.08313004,-1.369951172,-2.073787537,0.971479797,2.668545289
13.09310804,-1.212478638,-0.969234467,1.794019318,2.37234593
13.10308504,-0.909957733,0.141306152,3.555107117,3.672434767
13.11306304,-1.132395172,1.669478302,5.310656433,5.680893273
13.12304104,-1.899998932,3.967200165,7.280110931,8.505803211
13.13301904,-3.390748901,7.021897888,9.83454895,12.55080002
13.14299704,-5.705684967,9.663604431,12.50843857,16.80479476
13.15297504,-7.59146347,11.49998566,14.96243546,20.3409553
13.16295304,-8.399333496,14.04948395,17.62629593,24.05458606
13.17293004,-8.417445831,17.48798355,20.38416092,28.14599402
13.18290804,-8.510701904,20.12085846,23.48301682,32.07386897
13.19288604,-8.724457397,22.52994873,25.91800323,35.43243766
13.20286404,-9.639803925,24.13446213,27.60110321,37.91067106
13.21284204,-9.845625916,25.01882309,28.15285583,38.92892434
13.22282004,-8.880433044,25.97713028,27.79480042,39.06692103
13.23279804,-7.856861572,25.60545319,27.0424649,38.0613244
13.24277504,-6.974147186,24.09509399,25.76097977,35.95608936
13.25275304,-6.292464752,22.19958572,24.02938065,33.3140789
13.26273104,-5.415288849,19.48872299,21.90140579,29.81287059
13.27270904,-4.536915436,16.25365036,19.39247314,25.70666774
13.28268704,-3.561543732,12.61426849,16.15171234,20.8010138
13.29266504,-2.368674316,8.691974945,12.56472153,15.46070094
13.30264304,-1.222956848,5.253774719,9.273964691,10.72866223
13.31262004,-0.261955261,2.488275604,6.039490814,6.537246006
13.32259804,0.742006989,0.030686188,2.931503906,3.024108326
13.33257604,1.577120361,-1.717079315,0.609083405,2.409699691
13.34255404,2.208357697,-2.83390686,-1.57966507,3.924692796
13.35253204,2.812800751,-3.595972137,-3.461701355,5.729418814
13.36251004,2.841990051,-3.820654907,-4.891228638,6.826304195
13.37248804,2.433040466,-3.723955994,-5.933361511,7.41568021
13.38246504,2.404898987,-3.615281982,-6.699767761,7.983776738
13.39244304,2.129172363,-3.312761078,-7.382947083,8.367536587
13.40242104,1.692530365,-2.549348602,-7.843688965,8.419459241
13.41239904,1.334924011,-1.731449432,-8.307274933,8.590154601
13.42237704,1.101259918,-1.479373627,-8.344397736,8.545776343
13.43235504,0.935704193,-1.613195343,-7.910300446,8.127164
13.44233204,0.734672241,-1.74806488,-7.211703186,7.456818153
13.45231004,0.340092773,-1.854044495,-6.420897675,6.691866035
13.46228804,-0.141455841,-1.949845276,-5.323978729,5.671565557
13.47226604,-0.523611145,-1.924996948,-4.38662796,4.818950793
13.48224404,-0.889151001,-1.848955078,-3.484903107,4.043979976
13.49222204,-1.135538635,-1.811532898,-2.507136383,3.294970755
13.50220004,-0.990789642,-1.784888306,-1.764231262,2.698147944
13.51217804,-0.784668274,-1.629511414,-1.079854431,2.106441867
13.52215504,-0.954415283,-1.174906769,0.113014984,1.51792188
13.53213304,-0.942290497,-0.640518036,1.55855896,1.93061668
13.54211104,-1.220262451,0.156873779,3.277883606,3.501167058
13.55208904,-1.80195282,1.385668488,5.070256348,5.556492649
13.56206704,-2.318977661,2.454445953,6.742429047,7.540710297
13.57204504,-2.664608917,3.300187225,8.459807739,9.463599917
13.58202204,-2.79064682,4.333189087,10.38869659,11.59695021
13.59200004,-3.198548584,6.247707825,12.97546738,14.75219712
13.60197804,-3.810625763,8.652008057,15.92298798,18.51809003
13.61195604,-4.063000946,10.49332901,18.5582579,21.70315338
13.62193404,-3.590134277,11.86657333,21.20714951,24.56517488
13.63191204,-2.723286896,12.81036072,24.14449127,27.4677646
13.64189004,-2.387235718,13.82345398,26.59848816,30.07102171
13.65186704,-2.566413116,15.08353363,27.99298828,31.90151808
13.66184504,-2.895578613,16.36846161,28.89141998,33.33204254
13.67182304,-3.16741333,16.17281845,29.8254776,34.07567575
13.68180104,-3.124452667,15.49996765,30.77884506,34.60272395
13.69177904,-3.179538116,14.88145386,31.62952606,35.0997728
13.70175704,-2.512674866,13.62317047,31.79687805,34.68350851
13.71173504,-1.287472687,12.11146408,30.68379272,33.01272912
13.72171204,0.311951294,10.17643799,28.38681931,30.15739899
13.73169004,1.941313019,7.740553436,25.13737656,26.37370971
13.74166804,3.245550842,5.381309509,21.44545395,22.34725011
13.75164604,4.201163635,3.380869446,17.15732117,17.98481926
13.76162404,4.952002258,1.450034637,12.66411484,13.67496733
13.77160204,4.501139832,-0.054786072,7.178023224,8.472737379
13.78158004,2.720742188,-0.499211884,-1.494492188,3.144067024
13.79155704,4.423152008,0.905167694,1.88263504,4.891617006
13.80153504,4.836741943,-0.935255127,0.172890472,4.929367697
13.81151304,5.292693787,-0.937650146,-3.421435089,6.371657036
13.82149104,5.232069855,-0.701890411,-5.30167511,7.481641804
13.83146904,4.690645752,-1.365610199,-4.908891907,6.925624054
13.84144704,3.374732208,-2.869981842,-3.832779694,5.857970078
13.85142504,2.054777069,-4.058809662,-5.368585968,7.036885673
13.86140204,1.504221954,-3.86481308,-7.240892487,8.34445851
13.87138004,0.867595825,-3.29150528,-7.417824554,8.161547074
13.88135804,0.218395844,-3.15334259,-7.467221832,8.108678569
13.89133604,-0.201331329,-2.892285461,-6.869664459,7.456415981
13.90131404,-0.664767609,-2.458786926,-6.073769531,6.586214804
13.91129204,-1.040635986,-1.894011383,-5.271437988,5.697215183
13.92126904,-1.310225372,-1.773511963,-3.941154327,4.516052772
13.93124704,-1.382974091,-1.679657135,-2.59171051,3.383907327
13.94122167,-1.491947479,-1.164727936,-1.879341888,2.667287832
13.95119967,-1.298399963,-0.852926331,-0.426463165,1.610961397
13.96117767,-0.646655273,-0.284558258,1.255289612,1.440447311
13.97115567,0.00823288,0.727337494,2.563718719,2.664909245
13.98113367,0.497714996,1.757644958,4.824018402,5.158312666
13.99111067,1.226848755,3.141068115,7.348668365,8.08544331
14.00108867,2.068997498,4.257446594,9.885143738,10.96004876
14.01106667,2.534978485,5.399571533,12.61486725,13.95408056
14.02104467,2.356399841,6.922803955,14.8477739,16.55095842
14.03102267,2.305355988,8.429869995,16.49135605,18.66392774
14.04100067,2.008223877,9.572743378,18.56634109,20.98521862
14.05097867,1.585203552,10.19589752,20.31575317,22.78593916
14.06095567,1.236578522,10.58299255,21.88044937,24.33686345
14.07093367,-0.067659302,11.42439285,22.75972092,25.46617808
14.08091167,-1.481918335,12.02075272,22.5980571,25.63916462
14.09088967,-3.015778656,12.43419296,22.22293716,25.64299147
14.10086767,-5.058131561,13.06168808,21.86982147,25.97078131
14.11084567,-6.948700104,14.49286194,20.79041611,26.27867733
14.12082367,-8.239016876,16.05082214,20.12055908,27.02493642
14.13080067,-9.028624878,17.04879684,20.41978683,28.09172895
14.14077867,-8.565787354,16.92769867,20.47157913,27.91066548
14.15075667,-6.849306793,15.36569687,19.87806335,26.04141023
14.16073467,-4.587061157,13.03459442,19.47285599,23.87747688
14.17071267,-2.2945784,10.44482986,18.38162521,21.26602235
14.18069067,-0.443527679,8.252339172,16.44255753,18.40259538
14.19066767,0.894390106,6.551126862,13.75384872,15.26058818
14.20064567,1.270408173,4.978048096,10.48584457,11.67680762
14.21062367,0.765807495,4.044888611,7.236701202,8.325708936
14.22060167,-0.752934265,3.480861511,4.152365112,5.47041524
14.23057967,-1.675166473,3.158581696,1.572480011,3.905830824
14.24055767,-1.532662811,2.922522583,-0.495469666,3.337017191
14.25053567,-0.961001587,2.462678833,-2.040406952,3.339396894
14.26051367,-0.125439148,1.714684296,-2.815644836,3.299050327
14.27049067,0.699196014,0.887205048,-3.414998474,3.596974067
14.28046867,2.669698334,0.182021484,-3.263962555,4.220648359
14.29044667,2.874173126,0.599653015,-1.946252747,3.522549453
14.30042467,3.428470459,0.770747223,-1.923500061,4.00603463
14.31040267,3.150049438,0.609233093,0.741258545,3.292937998
14.32038067,1.275796967,1.446442108,-0.124690704,1.932718408
14.33035767,0.663570099,0.221688995,-3.251388702,3.32580814
14.34033567,0.06197113,-1.288071442,-0.692759399,1.463859298
14.35031367,-0.072748718,-0.576451263,0.016016693,0.581244329
14.36029167,-0.000149689,-0.825233917,-0.69156189,1.076693498
14.37026967,-0.00823288,-1.378483429,-0.217946777,1.395630733
14.38024767,-0.119152222,-1.639390869,0.852776642,1.851763396
14.39022567,-0.239501953,-1.506766663,1.418749695,2.083400503
14.40020267,-0.261356506,-1.392853546,1.654958496,2.17881524
14.41018067,-0.042511597,-1.018182678,2.36822525,2.578176495
14.42015867,0.005538483,-0.102836151,3.44478653,3.446325606
14.43013667,-0.183218994,1.31396759,4.157903595,4.36442921
14.44011467,-0.486188965,2.84333725,4.436174927,5.291558788
14.45009267,-1.049467621,4.269122314,4.822072449,6.525271667
14.46006967,-1.926942902,5.492827606,5.718707886,8.160139946
14.47004767,-1.852996674,6.233188019,6.986271973,9.544329501
14.48002567,0.103135529,7.623197479,8.330925751,11.29283404
14.49000367,1.106648712,8.38720871,9.46945816,12.69805415
14.49998167,0.376018066,9.02952301,10.32043854,13.71805843
14.50995967,-0.277373199,9.382339325,12.37521561,15.53226282
14.51993767,-0.835263062,10.99044525,12.89343796,16.96255563
14.52991467,-0.879271545,11.64308807,15.97418152,19.78658873
14.53989267,-1.248254242,12.30126938,20.17175262,23.65964858
14.54987067,-1.825753326,12.93385391,22.91779221,26.37883909
14.55984867,-2.083068237,12.47415985,23.71608215,26.87743273
14.56982667,-1.10335556,12.61771133,23.78224457,26.94474326
14.57980467,-0.127684479,13.72076752,23.54543701,27.25185074
14.58978267,0.693208466,14.88459732,23.40712463,27.74752708
14.59975967,1.056802368,15.26330978,23.24531113,27.82858146
14.60973767,0.81789917,15.10374161,23.28887054,27.76983005
14.61971567,0.57690033,14.62563583,22.7453508,27.04797627
14.62969367,0.310753784,13.31690735,21.07003464,24.92755401
14.63967167,-0.063468018,11.57917099,18.78234192,22.06484981
14.64964967,-0.21300705,9.990973663,15.92059296,18.79707974
14.65962767,0.470172272,8.606203308,13.14296906,15.71704275
14.66960467,1.403930511,7.426805878,9.967322845,12.50903638
14.67958267,1.801054688,6.130651245,7.072792053,9.531687684
14.68956067,1.729204102,4.876409454,4.633314972,6.945295071
14.69953867,1.410516815,3.633244629,2.542462921,4.653401114
14.70951667,0.991987152,2.470312958,0.762214966,2.769017204
14.71949467,0.55579422,1.41111557,-0.431253204,1.576747822
14.72947167,0.363593903,0.619112549,-1.28822113,1.474793055
14.73944967,0.157771912,0.064216461,-1.993704071,2.000967679
14.74942767,-0.145647125,-0.401614838,-2.423310699,2.460679237
14.75940567,-0.344583435,-0.685274963,-2.751727753,2.856631783
14.76938367,-0.46223877,-0.782572632,-2.786305847,2.930799358
14.77936167,-0.481847992,-0.818348236,-2.586621094,2.755445519
14.78933967,-0.025596771,-0.697848816,-2.425855408,2.524365786
14.79931667,0.41418869,-0.61072998,-2.244432678,2.362630193
14.80929467,0.550106049,-0.679137726,-1.639989624,1.85833546
14.81927267,0.665366364,-0.790655823,-0.816402283,1.316951675
14.82925067,0.740360413,-0.997825012,-0.160615997,1.252831112
14.83922867,0.614172821,-1.259480896,0.321681061,1.437699234
14.84920667,-0.114960938,-1.319356384,0.30192215,1.35833511
14.85918367,-0.888851624,-1.428928528,0.825233917,1.874274517
14.86916167,-1.124910736,-1.597478027,1.406774597,2.407566194
14.87913967,-0.710722046,-1.460812225,1.447938995,2.176149241
14.88911767,-0.53588562,-1.20873642,1.547781372,2.035643462
14.89909567,-0.305664368,-0.164507904,2.298919373,2.324978245
14.90907367,-0.042661285,1.636097717,3.647315369,3.997692475
14.91905167,-0.099542999,3.268153839,5.320685577,6.245032693
14.92902867,-0.263751526,5.176984406,7.191046143,8.864641957
14.93900608,-0.737366638,7.276069336,9.186247101,11.74189211
14.94898408,-1.253942413,9.836794281,11.31556915,15.04582994
14.95896208,-1.470541992,12.06146805,13.52407654,18.18081823
14.96894008,-1.956281891,13.01139267,15.36210434,20.22665637
14.97891808,-2.462080078,13.01214111,18.04377777,22.38203679
14.98889608,-3.187621307,13.03040314,21.03530685,24.94867672
14.99887308,-3.729344788,12.99836975,23.28198486,26.92427247
15.00885108,-3.519331512,12.77129196,24.0976387,27.49886877
15.01882908,-2.732417908,13.21047867,23.84032379,27.39240575
15.02880708,-2.058668976,14.3274559,22.87498123,27.06988875
15.03878508,-1.753004608,15.34563858,22.39777359,27.20701951
15.04876308,-1.528471527,15.69067108,21.73614944,26.85132356
15.05874008,-1.301543427,15.75713287,21.43467636,26.6350634
15.06871808,-1.066382446,15.48859131,21.12571884,26.21697215
15.07869608,-0.990789642,14.39242081,19.95994308,24.62768298
15.08867408,-1.08344696,12.76500504,18.26846054,22.31268387
15.09865208,-1.079255676,10.6181694,16.14407822,19.35307665
15.10863008,-0.848136292,8.5638414,13.78139145,16.24762952
15.11860808,0.076341248,6.932982788,11.13504456,13.11721371
15.12858508,1.510808258,5.541775818,8.202043762,10.01335821
15.13856308,2.443219299,4.27076889,5.138215027,7.114073455
15.14854108,2.937641144,3.392245789,1.953138428,4.894059327
15.15851908,3.489842834,2.448757782,-0.853225708,4.3478054
15.16849708,3.638034668,1.737137604,-3.029699707,5.043017313
15.17847508,3.158731384,0.901126099,-4.562063141,5.621568492
15.18845308,2.186054077,0.335901489,-4.994663544,5.462446902
15.19843008,1.104253693,-0.377065887,-4.883145447,5.020623901
15.20840808,0.027093658,-0.994831238,-4.82776062,4.929269303
15.21838608,-0.749790802,-1.235381012,-4.382137299,4.614269151
15.22836408,-0.929866333,-1.183588715,-4.044589233,4.315580576
15.23834208,-0.739013214,-1.140478363,-3.828139343,4.062201652
15.24832008,-0.362995148,-1.083147583,-3.465293884,3.64873072
15.25829708,-0.36853363,-1.141376495,-2.605332184,2.868155004
15.26827508,-0.826730804,-1.382225647,-1.517843628,2.213115641
15.27825308,-1.323248291,-1.892514496,-0.72314621,2.419821811
15.28823108,-1.731150055,-2.259551239,-0.37092865,2.870547052
15.29820908,-0.802032166,-2.251617737,0.132474518,2.393864559
15.30818708,-0.178578644,-2.059567108,0.718505859,2.188597193
15.31816508,0.408201141,-1.699715424,0.966989136,1.997680826
15.32814208,1.450334015,-1.101708984,1.638492737,2.449875485
15.33812008,2.603535919,0.525108032,2.997516632,4.004902457
15.34809808,4.17601593,2.434387665,5.011278992,6.962633804
15.35807608,4.616699524,1.864672394,7.192692719,8.747899529
15.36805408,3.557502136,0.185314636,11.7462236,12.27452369
15.37803208,2.832859039,-0.103285217,14.0369101,14.32028642
15.38800908,3.177292786,2.971321106,14.81469269,15.44017675
15.39798708,1.299298096,6.804849243,18.23987,19.51120207
15.40796508,-1.121467896,8.301137695,19.08486282,20.84223036
15.41794308,-3.054997101,9.544901276,19.52674393,21.94839119
15.42792108,-6.784042511,11.54279663,18.54553436,22.87348316
15.43789908,-9.111253052,14.58207642,16.49704422,23.82864563
15.44787708,-7.854017487,16.66604279,15.72150696,24.21999905
15.45785408,-6.95034668,17.81714905,14.63596436,24.08255742
15.46783208,-5.272785187,20.55465637,12.99073563,24.88082343
15.47781008,-2.844235382,21.33273834,13.63828903,25.47897815
15.48778808,0.773291931,20.57770844,15.48948944,25.76750566
15.49776608,3.25752594,19.382444,15.95906296,25.31762827
15.50774408,4.686304779,16.47698593,17.44382538,24.44871288
15.51772208,4.173171844,12.82996994,20.90178452,24.87786341
15.52769908,4.212989044,10.29409332,20.50436096,23.32694692
15.53767708,4.602479095,8.28422287,17.83541107,20.19685744
15.54765508,4.65696579,6.552174683,14.83999008,16.87731107
15.55763308,4.445605316,5.230572968,11.87300995,13.71461503
15.56761108,3.900588684,4.262386322,9.323361969,10.96848247
15.57758908,3.235222321,3.323239288,6.899003448,8.313051871
15.58756608,2.736010437,2.638413391,4.78569809,6.11145519
15.59754408,2.336042175,2.217937775,3.242108002,4.570295976
15.60752208,2.019749908,1.850451965,1.940115509,3.356726137
15.61750008,1.679357758,1.357976074,0.739761658,2.28289045
15.62747808,0.939296722,0.894390106,0.064964905,1.298627134
15.63745608,-0.105680237,0.513582001,-0.063018951,0.528115681
15.64743408,-0.777632904,0.096698914,-0.390388184,0.875480752
15.65741108,-0.66925827,-0.024249573,-0.554447021,0.869428648
15.66738908,-0.723595276,0.042960663,-0.669707336,0.986885839
15.67736708,-1.003064117,-0.119152222,-1.991907806,2.233390155
15.68734508,-0.976269836,-0.534239044,-2.168989563,2.437833028
15.69732308,-0.75937088,-0.653091888,-1.30812973,1.647536506
15.70730108,-0.354013824,-0.658630371,-0.44577301,0.870536231
15.71727808,0.169597321,-0.923579407,0.319585419,0.991915829
15.72725608,0.565973053,-1.194515991,0.95007431,1.627831424
15.73723408,0.477806396,-1.175804901,1.168470154,1.725148868
15.74721208,0.417930908,-1.268013153,0.837059326,1.575814683
15.75719008,0.524509277,-1.355880432,0.802032166,1.660354577
15.76716808,0.622854767,-1.191222839,1.127605133,1.754552151
15.77714608,0.496966553,-0.955762482,1.93996582,2.218991902
15.78712308,1.084195404,-0.440833282,3.953129425,4.122747374
15.79710108,1.492695923,0.32063324,6.817423096,6.986286886
15.80707908,1.250649261,1.723366241,8.291108551,8.560174985
15.81705708,1.631307678,3.5208284,9.006770325,9.807105029
15.82703508,1.67441803,5.684728546,10.29334488,11.87740557
15.83701308,1.427731018,8.251291351,11.15869537,13.95129769
15.84699008,0.732277222,10.69421127,12.33030899,16.33826504
15.85696808,-0.685274963,12.03587128,15.47511932,19.6166031
15.86694608,-2.517464905,12.44287491,19.76265335,23.48883209
15.87692408,-4.338278503,12.22582626,23.79212402,27.09901573
15.88690208,-6.198759613,12.07419159,26.03775421,29.36282288
15.89688008,-7.544161835,12.02269867,25.50291641,29.18661348
15.90685808,-7.550299072,12.08152634,23.66084702,27.61894234
15.91683508,-6.64842453,12.89568329,22.0711528,26.41279959
15.92681308,-5.716312866,14.35754333,20.40077637,25.59310375
15.93679121,-4.828059998,15.60190567,19.01331161,25.06462931
15.94676921,-4.02857254,15.841707,18.37593704,24.59398584
15.95674721,-3.625311127,14.73386078,18.14227295,23.65103807
15.96672521,-3.464994507,13.20928116,18.25409042,22.79699789
15.97670221,-3.456013184,11.69802383,17.39203308,21.24313074
15.98668021,-3.279679871,9.982890472,14.90300903,18.23496862
15.99665821,-2.92057663,8.259973297,11.52917496,14.48029012
16.00663621,-2.42795105,6.552623749,8.313861237,10.86057609
16.01661421,-1.648521881,5.326523438,5.618865509,7.91587809
16.02659221,-0.285306702,5.033432922,3.627406769,6.210871659
16.03656921,0.608035583,4.68271225,2.023641815,5.137375544
16.04654721,0.978964233,3.921245728,0.56282959,4.080602428
16.05652521,1.347348175,2.98718811,-0.567020874,3.32568077
16.06650321,1.533261566,2.434237976,-1.327589264,3.168422132
16.07648121,1.349443817,2.243235168,-1.853894806,3.207807442
16.08645921,0.737815704,1.739083557,-2.583327942,3.200369805
16.09643721,0.215402069,1.080602875,-3.02116745,3.215828569
16.10641421,-0.257763977,0.321381683,-2.98135025,3.009680676
16.11639221,-0.632883911,-0.036074982,-2.610271912,2.686142755
16.12637021,-0.794697418,0.211360474,-2.133363647,2.28636342
16.13634821,-1.105451202,0.417032776,-1.853146362,2.197746604
16.14632621,-0.646804962,0.198038177,-0.457149353,0.816432061
16.15630421,-0.643960876,-0.213605804,1.435065765,1.587364735
16.16628121,-1.195563812,-0.579445038,2.220632172,2.587728081
16.17625921,-0.907562714,-0.551602936,2.956950989,3.141893542
16.18623721,-0.860111389,-0.387843475,3.949686584,4.06081744
16.19621521,-0.718206482,0.127235413,4.071982269,4.136792115
16.20619321,-0.602497101,0.685274963,4.020639038,4.122880402
16.21617121,-0.36509079,1.412163391,3.651207275,3.931769487
16.22614921,-0.05613327,1.996248779,3.31485672,3.869939949
16.23612621,-0.084574127,2.126178589,2.990930328,3.670620166
16.24610421,-0.480051727,1.48131958,3.482059021,3.814379685
16.25608221,-0.61552002,2.212099915,4.998405762,5.500573705
16.26606021,-0.789907379,3.62605957,6.726262665,7.682113714
16.27603821,-0.789907379,5.0138237,7.713908844,9.234000835
16.28601621,-2.819387054,7.895331573,7.12353653,11.00136249
16.29599321,-4.607568512,8.967402191,6.511010284,12.00155176
16.30597121,-5.129832458,10.33525772,6.14651825,13.07334769
16.31594921,-4.694537659,12.08526855,8.217012634,15.34964809
16.32592721,-4.289629669,12.58822266,12.19049973,18.04085796
16.33590521,-4.561314697,12.92981232,15.48679504,20.68396623
16.34588321,-5.791157227,12.02808746,18.34644836,22.68930492
16.35586021,-5.893244934,12.00787949,20.19166122,24.22029497
16.36583821,-4.30474823,13.75968658,20.60360458,25.14693528
16.37581621,-3.391946411,15.00315079,18.75839172,24.25854683
16.38579421,-3.3230896,15.69231766,16.58146866,23.07025923
16.39577221,-4.231550446,16.06384506,15.81850525,22.93857549
16.40575021,-4.971461792,16.32505188,15.46209641,23.02822565
16.41572721,-4.45802948,16.7733696,15.9851088,23.59541603
16.42570521,-3.058739319,17.19863525,16.43522278,23.9846928
16.43568321,-1.560654602,16.74522812,15.81790649,23.08775592
16.44566121,-1.819017334,14.30664917,15.56104065,21.21638566
16.45563921,-2.731819153,10.32882111,14.34407135,17.88574193
16.46561721,-2.980601807,8.231682129,12.12388824,14.95437207
16.47559521,-2.322270813,6.636000366,9.844428406,12.09719857
16.48557221,-1.441352692,5.23027359,7.122937775,8.953742343
16.49555021,-0.435145111,4.140689392,4.733307037,6.303876222
16.50552821,0.252824249,2.978057098,2.677482147,4.012686735
16.51550621,0.718805237,1.392554169,1.101259918,1.915375026
16.52548421,0.979562988,0.160017242,-0.252375183,1.024130069
16.53546221,1.022373962,-0.684676208,-1.479822693,1.924553255
16.54543921,0.88346283,-1.085692291,-2.305655365,2.697272879
16.55541721,0.766855316,-1.207089844,-2.872975616,3.209224495
16.56539521,0.522114258,-0.748443604,-3.045866089,3.17963384
16.57537321,0.368383942,-0.680634613,-2.773582306,2.87953625
16.58535121,0.375119934,-0.437689819,-2.486778717,2.552715364
16.59532921,0.387993164,-0.498762817,-1.728755035,1.840624083
16.60530721,0.437091064,-0.7617659,-0.973276062,1.310954682
16.61528421,0.434396667,-0.75592804,-0.185164948,0.891298897
16.62526221,0.228424988,-0.769849091,0.429157562,0.910506348
16.63524021,0.061072998,-0.878373413,0.883911896,1.247625747
16.64521821,-0.202229462,-0.784817963,1.304387512,1.535663626
16.65519621,-0.679287415,-0.497415619,1.563798065,1.776039999
16.66517421,-1.075812836,-0.072299652,1.625170441,1.950328039
16.67515121,-1.445693665,0.728834381,1.668131104,2.32462709
16.68512921,-1.872755585,1.882934418,1.859433289,3.241935788
16.69510721,-2.474953308,2.872825928,2.341281281,4.456469536
16.70508521,-3.314557343,3.796704712,3.120111694,5.9275926
16.71506321,-4.057013397,5.303471375,4.478836212,8.040282342
16.72504121,-4.232897644,6.903943176,6.679559784,10.49754127
16.73501821,-3.544329529,8.117319946,7.705975342,11.74032414
16.74499621,-2.439776459,8.901688843,7.602690125,11.95798773
16.75497421,-1.331630859,9.905501404,8.531658325,13.14082922
16.76495221,-0.382005615,10.70858139,11.42723694,15.66529246
16.77493021,0.807121582,11.41526184,15.15792892,18.99269484
16.78490821,1.442999268,12.55514145,18.40018661,22.32220175
16.79488521,0.74530014,13.41405533,20.22414368,24.27979283
16.80486321,-1.313817902,14.19243668,19.53228241,24.17977321
16.81484121,-3.099304962,14.98908005,17.12977844,22.97188546
16.82481921,-3.345991974,15.71013062,14.65916611,21.74614948
16.83479721,-1.783990173,17.19025269,13.36301147,21.84622356
16.84477521,0.096549225,19.01810165,12.74210266,22.89232825
16.85475321,0.9595047,19.58048218,13.29625031,23.68768042
16.86473021,1.013093262,18.77800095,15.14340912,24.14461673
16.87470821,0.396525421,16.82860474,16.97215622,23.90425185
16.88468621,-0.578995972,14.42595108,18.24196564,23.26397669
16.89466421,-0.996328125,12.58537857,18.31710938,22.24636868
16.90464221,-0.68796936,11.37873779,16.7587001,20.26827582
16.91462021,-0.235011292,10.05354355,14.61889984,17.74376512
16.92459721,0.07843689,8.538544006,12.17927307,14.87439339
16.93457517,0.282612305,6.791826324,9.173822937,11.41787204
16.94455317,0.239052887,4.605323181,5.930667114,7.512586792
16.95453117,0.107027435,2.411335602,3.658392334,4.382901861
16.96450917,0.129480743,0.862057343,2.389481049,2.543526647
16.97448717,0.163011017,-0.011076965,1.044527893,1.057229308
16.98446417,-0.022752686,-0.815204773,-0.101488953,0.821812943
16.99444217,-0.316891022,-1.322499847,-0.62719574,1.497598164
17.00442017,-0.432750092,-1.478924561,-0.670306091,1.680416839
17.01439817,-0.462538147,-1.59478363,-0.709973602,1.805917739
17.02437617,-0.535286865,-1.622326355,-0.681233368,1.839172023
17.03435417,-0.714015198,-1.216669922,-0.590072937,1.529146648
17.04433117,-0.74649765,-0.900078278,-0.474363556,1.261911419
17.05430917,-0.613274689,-0.76760376,-0.427361298,1.071428511
17.06428717,-0.250728607,-0.716410217,-0.339194641,0.831361196
17.07426517,0.010627899,-0.819396057,0.099542999,0.82548874
17.08424317,0.298030243,-1.063238983,0.533939667,1.226536069
17.09422117,0.126636658,-1.373094635,0.652792511,1.525635534
17.10419917,-0.393381958,-1.70600235,0.82957489,1.937366223
17.11417617,-0.941691742,-1.893113251,1.102756805,2.384687336
17.12415417,-1.327439575,-1.896855469,1.232536926,2.622842689
17.13413217,-1.450184326,-1.873953094,1.420246582,2.762577625
17.14411017,-1.31636261,-1.565444641,1.879790955,2.777956349
17.15408817,-1.134790192,-0.971479797,2.762655029,3.140666265
17.16406617,-1.178948364,-0.033829651,3.749403076,3.930532676
17.17404317,-1.273401947,1.351090393,4.591551819,4.952710962
17.18402117,-1.161135406,3.169059906,5.16710495,6.171721776
17.19399917,-0.803079987,5.330714722,5.515879669,7.712741759
17.20397717,-0.28904892,7.865543518,6.138884125,9.981794549
17.21395517,-0.124391327,10.42986099,7.486681366,12.83930962
17.22393317,-0.83780777,11.9559375,9.644144897,15.38362422
17.23391017,-1.975891113,12.91903473,11.90833649,17.68089596
17.24388817,-3.122656403,14.17073181,14.35559738,20.41185438
17.25386617,-3.66348175,15.72554855,15.96160767,22.70433648
17.26384417,-3.785777435,17.17094284,14.85720428,23.01977211
17.27382217,-3.726051636,18.81542313,12.06281525,22.65866545
17.28380017,-3.54882019,20.89430008,12.12942673,24.41902728
17.29377717,-3.363804932,23.05041641,16.54045395,28.56962543
17.30375517,-4.065695343,22.93770081,20.79790054,31.22852324
17.31373317,-5.333409119,20.15169434,22.93545547,30.99308238
17.32371117,-5.983507233,17.48034943,25.47552338,31.47010115
17.33368917,-5.969137115,14.6340184,26.53277481,30.88321926
17.34366717,-5.850883026,11.50552414,25.39484116,28.48697729
17.35364417,-5.839057617,9.183253326,21.76009964,24.32958429
17.36362217,-4.713697815,7.173233185,17.80472488,19.7656887
17.37360017,-3.14406189,6.033652954,14.43298645,15.95622734
17.38357817,-1.890568542,5.22683075,11.57527908,12.84060337
17.39355617,-1.129251709,4.377047882,8.903934174,9.985679814
17.40353417,-0.624950409,3.491639099,6.292464752,7.223380045
17.41351117,-0.532143402,2.445165253,4.167633362,4.86119096
17.42348917,-0.293090515,1.477128296,2.583926697,2.99073356
17.43346717,0.007484436,0.726289673,1.521286469,1.685783267
17.44344517,0.219293976,0.190254364,0.749940491,0.804174925
17.45342317,0.753982086,-0.21644989,0.419876862,0.889739355
17.46340117,1.126856689,-0.462538147,0.354612579,1.268659772
17.47337817,0.808019714,-0.586779785,-0.298030243,1.042126864
17.48335617,0.821192322,-0.284109192,-0.745449829,1.144888776
17.49333417,0.835562439,0.123792572,-1.34914444,1.591753721
17.50331217,0.818647614,0.264499969,-1.6814534,1.888764063
17.51329017,0.583336945,0.589174805,-1.773062897,1.957335172
17.52326817,0.462388458,0.828826447,-1.39240448,1.685095428
17.53324517,0.47032196,0.881217499,-0.788859558,1.272810445
17.54322317,0.632584534,0.782422943,-0.417781219,1.089444813
17.55320117,0.863853607,0.798589325,-0.458945618,1.262782263
17.56317917,1.830992432,1.271306305,-0.566422119,2.299910221
17.57315717,3.344046021,2.440375214,1.410816193,4.373611471
17.58313517,3.730841675,2.650388489,2.672243042,5.299492581
17.59311217,3.956422577,2.233954468,3.277135162,5.602093095
17.60309017,3.648512878,2.170785828,4.059558105,5.874007946
17.61306817,3.43415863,2.027533722,5.019362183,6.410798329
17.62304617,3.217559052,2.194586334,6.04937027,7.194704726
17.63302417,2.756368103,2.426005096,6.972799988,7.880546016
17.64300217,2.385439453,2.761008453,7.392676849,8.244098499
17.65298017,2.048340454,3.598217468,7.791148224,8.82297332
17.66295717,1.202150116,4.841981049,8.487051086,9.844794641
17.67293517,0.205672302,5.829028473,9.899813232,11.4902644
17.68291317,-0.514929199,6.909781036,11.4582225,13.39033566
17.69289117,-1.541793823,8.269253998,12.75033554,15.27510217
17.70286917,-2.674488373,9.474248199,13.29265778,16.54113109
17.71284717,-3.22010376,10.64406555,13.11303131,17.19351011
17.72282417,-3.153192902,11.38966507,13.23562637,17.74398212
17.73280217,-2.531385956,11.69967041,13.72735382,18.21346879
17.74278017,-1.68729126,11.9081868,14.15681076,18.5759833
17.75275817,-1.185983734,12.72743317,14.99656448,19.70510235
17.76273617,-1.345701599,13.09626617,16.11518829,20.80919014
17.77271417,-1.704355774,12.6129213,16.40229126,20.76116015
17.78269117,-1.579066315,12.10667404,17.08247681,20.9970479
17.79266917,-0.601598969,11.18728592,17.89274185,21.11083841
17.80264717,0.582438812,9.463021545,17.67359756,20.0560231
17.81262517,1.484463043,7.573650513,16.531772,18.2445416
17.82260317,2.069147186,6.113437042,14.97725464,16.30869826
17.83258117,2.531685333,4.916975098,13.09282333,14.21295527
17.84255817,3.137625275,4.288581848,11.1622879,12.36257651
17.85253617,2.782863007,4.385879517,9.403744812,10.74293638
17.86251417,1.541793823,4.583468628,8.030051422,9.37374198
17.87249217,0.542172546,4.587510223,7.119944,8.48721413
17.88247017,0.03278183,4.384083252,6.479126587,7.823064741
17.89244817,-0.214054871,3.955973511,5.750741272,6.983306601
17.90242517,-0.486188965,3.338357849,4.79737381,5.86479397
17.91240317,-0.878972168,2.833457794,4.25325531,5.185677957
17.92238117,-1.200054474,2.530338135,3.96076355,4.850813304
17.93235917,-1.007255402,2.123035126,3.517086182,4.229862503
17.94233746,-0.51253418,1.904040527,3.115621033,3.687160972
17.95231546,-0.43409729,1.856738892,2.606829071,3.229779803
17.96229246,-0.848435669,1.77381134,2.241289215,2.981547769
17.97227046,-1.276395721,1.816622314,2.204316101,3.128627837
17.98224846,-1.516047363,1.895657959,2.199526062,3.275642472
17.99222646,-1.407672729,1.850302277,2.235750732,3.225483276
18.00220446,-1.199904785,1.71767807,2.474354553,3.242317057
18.01218246,-0.818198547,1.540147247,2.744393005,3.251645026
18.02215946,-0.257614288,1.503323822,2.965632935,3.334865265
18.03213746,0.220641174,1.606159973,3.344495087,3.716729715
18.04211546,0.536783752,1.721719666,3.710484009,4.125548083
18.05209346,0.697848816,1.952988739,4.140539703,4.630899159
18.06207146,0.746946716,2.300715637,4.567751312,5.168711047
18.07204946,0.900377655,2.651735687,5.271887054,5.969520516
18.08202646,1.251846771,3.222798157,6.447093201,7.315637979
18.09200446,1.437909851,3.667972412,7.844736786,8.778468067
18.10198246,1.33043335,4.436324615,9.193282471,10.2940503
18.11196046,0.804876251,4.991819458,10.81276474,11.93658111
18.12193846,0.01526825,5.6667659,13.0043573,14.18540721
18.13191646,-0.514330444,6.55247406,16.09602814,17.38624669
18.14189346,-0.768202515,7.645052032,19.72029144,21.16428242
18.15187146,-0.498313751,9.378597107,22.9112059,24.76145707
18.16184946,-0.836310883,10.29065048,25.09606247,27.13686155
18.17182746,-1.619332581,10.13901581,25.72295883,27.69643462
18.18180546,-1.853146362,9.645641785,25.21925629,27.06443135
18.19178346,-1.616937561,10.01866608,25.15743484,27.12719457
18.20176046,-1.721869354,10.99972595,25.00565048,27.37227358
18.21173846,-2.964884491,11.99156342,23.89451111,26.89862068
18.22171646,-4.513264618,12.28764771,22.61826508,26.1331544
18.23169446,-5.252726898,11.94545929,21.00701569,24.73014043
18.24167246,-4.63466217,11.35119507,19.64095642,23.15376626
18.25165046,-3.183430023,10.47821045,18.30812805,21.33341683
18.26162746,-1.906435547,8.922794952,16.13464783,18.53584707
18.27160546,-0.945284271,7.013964386,13.50805984,15.24981769
18.28158346,-0.316591644,5.263953552,11.03041214,12.22617803
18.29156146,0.227077789,3.809428253,8.616681519,9.423932742
18.30153946,0.608035583,2.839295654,6.121969299,6.775678208
18.31151746,0.864901428,2.041305084,3.682941284,4.298725094
18.32149446,1.010099487,1.50706604,2.086361389,2.764860371
18.33147246,1.106049957,1.33267868,1.284029846,2.155947963
18.34145046,1.168170776,1.249152374,0.448018341,1.767972016
18.35142846,1.069974976,0.872236176,-0.481698303,1.462079221
18.36140646,0.930465088,0.708327026,-1.112486572,1.614038051
18.37138446,0.841999054,0.597557373,-1.511407013,1.830406616
18.38136146,0.853525085,0.43993515,-1.923799438,2.150128435
18.39133946,1.086590424,0.307161255,-2.272574158,2.537640654
18.40131746,1.473386078,0.288599854,-2.039658508,2.532659322
18.41129546,1.579964447,0.550106049,-1.527723083,2.265577661
18.42127346,1.122665405,0.759819946,-1.166673889,1.788527866
18.43125146,0.590671692,0.867296448,-0.840651855,1.344541453
18.44122946,0.121098175,0.912352753,-0.276624756,0.961027351
18.45120646,-0.085621948,0.762514343,0.161214752,0.784059588
18.46118446,0.02574646,0.61776535,0.347876587,0.709446987
18.47116246,0.366587677,0.461340637,0.62016037,0.855465132
18.48114046,0.663869476,0.5043013,1.093925171,1.37539622
18.49111846,0.813408508,0.685574341,1.694626007,2.00085054
18.50109646,0.761466522,0.814456329,2.360142059,2.610256868
18.51107346,0.546214142,1.203946381,3.279679871,3.536118894
18.52105146,0.317639465,1.628313904,4.058510284,4.384496177
18.53102946,0.195194092,1.894161072,4.782255249,5.14741801
18.54100746,0.102087708,2.366279297,5.868995361,6.328886645
18.55098546,-0.22109024,2.95216095,7.043602753,7.640449915
18.56096346,-0.581390991,3.507655792,8.003556519,8.757772638
18.57094046,-0.903521118,4.447251892,8.503965912,9.639078588
18.58091846,-1.301842804,5.641618195,9.279802551,10.93788764
18.59089646,-2.037712555,7.270680542,10.58883041,13.00532189
18.60087446,-3.128643951,8.847651215,13.13997528,16.14708318
18.61085246,-4.276007996,10.14171021,16.04004456,19.45306042
18.62083046,-5.053341522,11.48112488,18.03704178,21.97014713
18.63080746,-5.450914764,12.07748474,19.0308252,23.18944624
18.64078546,-5.288951569,12.51412674,18.0500647,22.59161819
18.65076346,-4.631518707,12.20322327,16.43432465,20.98705911
18.66074146,-4.187841339,13.03818695,15.03204071,20.33456619
18.67071946,-4.671784973,15.28336807,14.85465958,21.81897856
18.68069746,-5.356161804,16.5066243,15.53095322,23.28878749
18.69067446,-5.475463715,16.53641235,15.16346741,23.09468294
18.70065246,-5.830375671,15.88107513,14.62758179,22.36443554
18.71063046,-6.250252533,15.49697388,14.40798843,22.06381623
18.72060846,-5.477259979,13.86357056,12.99133438,19.77305577
18.73058646,-3.660787354,11.05032074,11.40313705,16.29547444
18.74056446,-1.658401337,8.911568298,10.39184006,13.78973112
18.75054146,0.431552582,7.08716217,9.388925629,11.7714073
18.76051946,2.055375824,5.436993713,8.329428864,10.15701017
18.77049746,3.100801849,4.179458771,7.425458679,9.067540147
18.78047546,3.626508636,3.322191467,6.531218262,8.175899523
18.79045346,3.067870331,2.757266235,5.191055145,6.630339281
18.80043146,1.946103058,2.324067078,3.865262146,4.912113227
18.81040846,0.904269562,2.136207733,2.937641144,3.743103313
18.82038646,0.343236237,2.084116058,2.223775635,3.06700651
18.83036446,0.09355545,1.971699829,1.549427948,2.509398295
18.84034246,0.04565506,1.889371033,1.015787659,2.145607572
18.85032046,0.029638367,1.877395935,0.99108902,2.123146574
18.86029846,0.027243347,1.955832825,1.198707275,2.294106225
18.87027546,-0.123493195,2.00088913,1.287622375,2.382599266
18.88025346,-0.19893631,1.849254456,1.277443542,2.256364266
18.89023146,-0.266296234,1.768123169,1.410217438,2.277254146
18.90020946,-0.270188141,1.778302002,1.5129039,2.350369727
18.91018746,-0.177979889,1.689985657,1.61469223,2.344132965
18.92016546,0.05733078,1.673370209,1.800306244,2.458568129
18.93014246,0.363593903,1.737736359,2.176773376,2.808962533
18.94011992,0.450113983,1.777703247,2.687361603,3.253420326
18.95009792,0.485739899,1.72591095,3.260519714,3.720981143
18.96007592,0.487087097,1.719324646,4.00641861,4.386880572
18.97005392,0.306412811,1.865271149,5.003644867,5.348793062
18.98003192,0.177231445,2.000290375,5.948629761,6.278436796
18.99000892,0.168699188,2.123035126,6.802753601,7.128337402
18.99998692,0.173938293,2.494562531,7.871531067,8.259182652
19.00996492,0.38499939,3.139421539,8.630003815,9.191363227
19.01994292,0.482446747,3.691323853,9.444160767,10.15139396
19.02992092,0.118254089,4.306993561,10.24679169,11.11579585
19.03989892,-0.778680725,5.173092499,11.15166,12.31774129
19.04987592,-2.084116058,6.387068024,12.62190262,14.29862243
19.05985392,-3.580703888,8.18587738,14.15845734,16.74192172
19.06983192,-4.993615723,9.645641785,14.99836075,18.51824583
19.07980992,-6.168821869,10.54018158,15.64845886,19.85003919
19.08978792,-6.952741699,11.68200714,15.15583328,20.35949878
19.09976592,-7.098239136,11.88408691,13.47333206,19.31701834
19.10974292,-7.237150269,12.07913132,12.0276384,18.51879701
19.11972092,-7.79159729,13.66852615,11.76014465,19.6427747
19.12969892,-8.201445007,14.70018082,12.32761459,20.86454164
19.13967692,-8.62940506,14.82322495,12.66097137,21.31888425
19.14965492,-9.190139008,14.75900848,12.82892212,21.60713376
19.15963292,-9.546098785,14.27072388,13.43501175,21.8009427
19.16960992,-8.922495575,12.89194107,12.93624893,20.32632796
19.17958792,-6.889273682,10.67160828,11.85175415,17.37266219
19.18956592,-4.384382629,7.962242432,10.50635193,13.89257163
19.19954392,-2.063309326,5.481451263,9.034762115,10.76710174
19.20952192,0.19070343,4.107159119,8.384963379,9.338775867
19.21949992,1.590292969,3.074306946,7.735014954,8.474128348
19.22947692,2.283202057,2.178569641,6.831044769,7.524782386
19.23945492,2.603835297,1.65331192,5.722001038,6.5003611
19.24943292,2.4325914,1.42638382,4.344415741,5.179384119
19.25941092,1.766476593,1.35617981,2.990481262,3.7286246
19.26938892,0.954564972,1.29765152,2.072140961,2.624664152
19.27936692,0.32766861,1.351090393,1.596280518,2.116819184
19.28934392,0.01526825,1.548829193,1.592687988,2.221657043
19.29932192,0.000898132,1.569186859,1.497036896,2.16874795
19.30929992,0.241747284,1.324146423,1.263073425,1.845849392
19.31927792,0.407901764,1.082848206,1.230441284,1.689061822
19.32925592,0.557590485,0.849333801,1.081800385,1.484104823
19.33923392,0.448766785,0.588875427,0.781524811,1.076543973
19.34921092,0.125139771,0.438288574,0.784219208,0.907059316
19.35918892,-0.223784637,0.456400909,1.152453461,1.259575458
19.36916692,-0.502355347,0.561183014,1.462758179,1.645280754
19.37914492,-0.550106049,0.628842316,1.761536865,1.949633671
19.38912292,-0.369431763,0.666713562,2.3834935,2.502404457
