"Time (s)","Acceleration x (m/s^2)","Acceleration y (m/s^2)","Acceleration z (m/s^2)","Absolute acceleration (m/s^2)"
6.453541660E-3,-1.033750305E0,3.880979462E0,8.842561798E0,9.711927740E0
1.647454166E-2,-7.613168335E-1,3.850442963E0,8.777297516E0,9.614908529E0
2.649654166E-2,-4.761598206E-1,3.869154053E0,8.531508636E0,9.379963799E0
3.651854166E-2,-4.788542175E-1,3.874692535E0,8.459208984E0,9.316692559E0
4.653954165E-2,-6.165678406E-1,3.641178131E0,8.570876770E0,9.332645000E0
5.656154166E-2,-5.545967102E-1,3.480711823E0,8.819958801E0,9.498136952E0
6.658254165E-2,-4.376898193E-1,3.568130035E0,9.092991028E0,9.777812136E0
7.660454165E-2,-4.167333984E-1,3.534150696E0,9.194629669E0,9.859264811E0
8.662554165E-2,-4.695735168E-1,3.413351898E0,9.346114655E0,9.960990393E0
9.664754165E-2,-6.265969849E-1,3.520978088E0,9.485474854E0,1.013726510E1
1.066685416E-1,-8.777746582E-1,3.848497009E0,9.561516724E0,1.034427473E1
1.166905416E-1,-1.265019379E0,4.278552704E0,9.563911743E0,1.055342101E1
1.267125416E-1,-1.492246857E0,4.670886841E0,9.595945129E0,1.077618427E1
1.367335416E-1,-1.541195068E0,4.760251007E0,9.607171783E0,1.083203682E1
1.467555416E-1,-1.409618683E0,4.581522675E0,9.639953613E0,1.076596863E1
1.567765416E-1,-1.262324982E0,4.272265778E0,9.624835052E0,1.060580827E1
1.667985416E-1,-1.150357819E0,4.019142151E0,9.521849213E0,1.039915569E1
1.768195417E-1,-1.071471863E0,3.974684601E0,9.360634460E0,1.022583234E1
1.868415416E-1,-1.031804352E0,3.973487091E0,9.201215973E0,1.007549479E1
1.968625417E-1,-9.970765686E-1,3.966302032E0,9.074729004E0,9.953713879E0
2.068845417E-1,-9.559121704E-1,3.963757324E0,8.980125732E0,9.862443834E0
2.169065417E-1,-8.689430237E-1,3.936813354E0,8.913214874E0,9.782584564E0
2.269275417E-1,-7.587721252E-1,3.994443512E0,8.790470123E0,9.685229945E0
2.369495417E-1,-7.047344971E-1,4.048481140E0,8.687933350E0,9.610777083E0
2.469705417E-1,-6.638694763E-1,4.062701569E0,8.680598602E0,9.607239916E0
2.569925417E-1,-6.158193970E-1,4.077670441E0,8.621920624E0,9.557413091E0
2.670135417E-1,-5.900729370E-1,4.040697327E0,8.557554474E0,9.481938596E0
2.770355417E-1,-5.369334412E-1,4.002377014E0,8.569828949E0,9.473610056E0
2.870565417E-1,-4.869374084E-1,3.954925690E0,8.681496735E0,9.552325937E0
2.970785417E-1,-4.381388855E-1,3.919000397E0,8.804540863E0,9.647303748E0
3.071005417E-1,-3.203338623E-1,3.911066895E0,8.854985962E0,9.685547709E0
3.171215417E-1,-2.145039368E-1,3.959416351E0,8.847800903E0,9.695698562E0
3.271435417E-1,-1.306782532E-1,3.964356079E0,8.711883545E0,9.572361821E0
3.371645416E-1,-1.646575928E-2,3.951033783E0,8.485254822E0,9.360047461E0
3.471865417E-1,1.133143616E-1,3.971541138E0,8.292455750E0,9.195150978E0
3.572075416E-1,1.749861145E-1,3.989054718E0,8.117769012E0,9.046620995E0
3.672295416E-1,2.321672058E-1,4.012705536E0,8.029602356E0,8.979433241E0
3.772505416E-1,3.141966248E-1,4.099375305E0,8.029302979E0,9.020715256E0
3.872725416E-1,3.625460815E-1,4.156257019E0,8.095465393E0,9.107275773E0
3.972945416E-1,4.170327759E-1,4.198319550E0,8.249644775E0,9.265875150E0
4.073155416E-1,4.532574463E-1,4.238286438E0,8.308771820E0,9.338319089E0
4.173375416E-1,4.326004028E-1,4.341571655E0,8.303083649E0,9.379636753E0
4.273585417E-1,3.375480652E-1,4.557123413E0,8.355624390E0,9.523537759E0
4.373805416E-1,2.745291138E-1,4.697980499E0,8.381071472E0,9.611906472E0
4.474015417E-1,2.266287231E-1,4.655319214E0,8.399333496E0,9.605839929E0
4.574235417E-1,1.830693054E-1,4.536166992E0,8.510252838E0,9.645451193E0
4.674445417E-1,1.287322998E-1,4.390070801E0,8.666827240E0,9.716130302E0
4.774665417E-1,3.068618774E-2,4.289929047E0,8.821605377E0,9.809442099E0
4.874885417E-1,-1.736389160E-2,4.200714569E0,8.995393982E0,9.927911023E0
4.975095417E-1,4.340972900E-3,4.171674957E0,9.190887451E0,1.009332963E1
5.075315417E-1,2.933898926E-2,4.173471222E0,9.219328308E0,1.012001666E1
5.175525417E-1,3.861968994E-2,4.160747681E0,9.085057526E0,9.992576394E0
5.275745417E-1,6.376739502E-2,4.195026398E0,8.925938416E0,9.862793182E0
5.375955417E-1,9.714797974E-2,4.250411224E0,8.795858917E0,9.769471193E0
5.476175417E-1,1.031355286E-1,4.294569397E0,8.730594635E0,9.730223323E0
5.576385416E-1,1.133143616E-1,4.342469788E0,8.743767242E0,9.763367738E0
5.676605417E-1,1.746867371E-1,4.312082977E0,8.826395416E0,9.824959598E0
5.776825417E-1,2.210902405E-1,4.234693909E0,8.869954834E0,9.831460327E0
5.877035416E-1,2.436932373E-1,4.229754181E0,8.880133667E0,9.839053855E0
5.977255417E-1,2.230361938E-1,4.259242859E0,8.895701294E0,9.865312787E0
6.077465416E-1,1.898052979E-1,4.296964417E0,8.893306274E0,9.878806899E0
6.177685416E-1,2.216889954E-1,4.358785858E0,8.917855225E0,9.928559914E0
6.277895416E-1,2.251318359E-1,4.359234924E0,8.906778259E0,9.918886653E0
6.378115416E-1,1.725910950E-1,4.323309631E0,8.871002655E0,9.869928164E0
6.478325417E-1,1.752854919E-1,4.372407532E0,8.819958801E0,9.845828857E0
6.578545416E-1,1.592687988E-1,4.424948273E0,8.854087830E0,9.899515395E0
6.678765416E-1,9.370513916E-2,4.424349518E0,8.912616119E0,9.950797727E0
6.778975417E-1,1.062789917E-2,4.424050140E0,8.990603943E0,1.002014430E1
6.879195416E-1,-2.903961182E-2,4.426894226E0,9.111402740E0,1.012995043E1
6.979405417E-1,-7.274871826E-2,4.383185120E0,9.232800293E0,1.022067539E1
7.079625417E-1,-8.771759033E-2,4.284839630E0,9.249864807E0,1.019448596E1
7.179835417E-1,-6.017486572E-2,4.252806244E0,9.184750214E0,1.012173989E1
7.280055417E-1,-1.856140137E-2,4.232598267E0,9.078471222E0,1.001667971E1
7.380265417E-1,-2.155517578E-2,4.160448303E0,8.955876160E0,9.875095569E0
7.480485417E-1,-4.909790039E-2,4.133654022E0,8.925788727E0,9.836625975E0
7.580669167E-1,-1.441502380E-1,4.163292389E0,8.945547638E0,9.867958520E0
7.680879167E-1,-2.836601257E-1,4.168082428E0,9.057365112E0,9.974429155E0
7.781099167E-1,-3.499722290E-1,4.188889160E0,9.188492432E0,1.010433898E1
7.881309167E-1,-3.591032410E-1,4.212090912E0,9.191935272E0,1.011742749E1
7.981529167E-1,-3.706292725E-1,4.257446594E0,9.228609009E0,1.017007580E1
8.081739167E-1,-3.632945251E-1,4.371359711E0,9.230105896E0,1.021937491E1
8.181959167E-1,-3.576063538E-1,4.420008545E0,9.149723053E0,1.016768360E1
8.282169166E-1,-3.546125793E-1,4.429289246E0,9.153315582E0,1.017484837E1
8.382389167E-1,-3.041674805E-1,4.499942322E0,9.240883484E0,1.028279759E1
8.482609167E-1,-2.514770508E-1,4.576283569E0,9.246871033E0,1.032037964E1
8.582819166E-1,-2.975811768E-1,4.534370728E0,9.252259827E0,1.030792823E1
8.683039166E-1,-3.989204407E-1,4.397854614E0,9.290879517E0,1.028691912E1
8.783249166E-1,-5.505551147E-1,4.296814728E0,9.336684265E0,1.029268676E1
8.883469166E-1,-7.890092468E-1,4.246818695E0,9.501641235E0,1.043739387E1
8.983679166E-1,-9.880952454E-1,4.164639587E0,9.691296844E0,1.059442257E1
9.083899166E-1,-1.198258209E0,4.018393707E0,9.938582611E0,1.078697061E1
9.184119166E-1,-1.461261292E0,3.747008057E0,1.033660492E1,1.109147218E1
9.284329166E-1,-1.675465851E0,3.462898865E0,1.072774155E1,1.139663516E1
9.384549166E-1,-1.727258148E0,3.257226562E0,1.104807541E1,1.164701317E1
9.484759167E-1,-1.657652893E0,3.057092743E0,1.111753098E1,1.164873917E1
9.584979166E-1,-1.472487946E0,2.960693207E0,1.083282303E1,1.132625180E1
9.685189167E-1,-1.225800934E0,2.816243591E0,1.056473053E1,1.100215193E1
9.785409167E-1,-9.984237671E-1,2.664608917E0,1.032013916E1,1.070524465E1
9.885619167E-1,-8.553213501E-1,2.609074402E0,1.010922775E1,1.047546322E1
9.985839167E-1,-8.243357849E-1,2.745740204E0,1.005369324E1,1.045444243E1
1.008605917E0,-9.523196411E-1,2.911894684E0,1.019589752E1,1.064623735E1
1.018626917E0,-1.106948090E0,3.064577179E0,1.035980667E1,1.086013635E1
1.028648917E0,-1.204545135E0,3.192561035E0,1.037537430E1,1.092207704E1
1.038669917E0,-1.314266968E0,3.285368042E0,1.022957748E1,1.082428734E1
1.048691917E0,-1.322200470E0,3.380570068E0,9.963430939E0,1.060407583E1
1.058712917E0,-1.319057007E0,3.488196259E0,9.609117737E0,1.030740356E1
1.068734917E0,-1.359622650E0,3.490890656E0,9.282496948E0,1.000997707E1
1.078755917E0,-1.313219147E0,3.518732758E0,8.980125732E0,9.733893513E0
1.088777917E0,-1.283131714E0,3.537294159E0,8.752898254E0,9.527439573E0
1.098799917E0,-1.270108795E0,3.466491394E0,8.556057587E0,9.318576091E0
1.108820917E0,-1.199455719E0,3.400179291E0,8.354875946E0,9.099662923E0
1.118842917E0,-1.108444977E0,3.322640533E0,8.276289368E0,8.986965899E0
1.128863917E0,-1.013093262E0,3.179987183E0,8.196505280E0,8.849936454E0
1.138885917E0,-9.427395630E-1,3.058140564E0,8.116272125E0,8.724382775E0
1.148906917E0,-8.846603394E-1,3.000809784E0,7.997419281E0,8.587560680E0
1.158928917E0,-8.828640747E-1,2.939437408E0,7.898325348E0,8.473681877E0
1.168949917E0,-8.910969543E-1,2.920726318E0,7.919132080E0,8.487481895E0
1.178971917E0,-8.620573425E-1,2.912942505E0,7.965685272E0,8.525287019E0
1.188993917E0,-8.409512329E-1,2.868934021E0,8.022716675E0,8.561656629E0
1.199014917E0,-8.289761353E-1,2.845732269E0,8.190517731E0,8.710337208E0
1.209036917E0,-8.144563293E-1,2.941083984E0,8.295150146E0,8.838712014E0
1.219057917E0,-8.378077698E-1,3.108735352E0,8.227041779E0,8.834612259E0
1.229079917E0,-8.837622070E-1,3.307521973E0,8.160879364E0,8.849897696E0
1.239100917E0,-9.514215088E-1,3.472928009E0,8.090076599E0,8.855267993E0
1.249122917E0,-9.910890198E-1,3.613485718E0,7.928412781E0,8.769222639E0
1.259143917E0,-9.732760620E-1,3.745211792E0,7.716752930E0,8.632621470E0
1.269165917E0,-9.618997192E-1,3.744163971E0,7.656578064E0,8.577132537E0
1.279187917E0,-9.376501465E-1,3.736829224E0,7.751630402E0,8.656260990E0
1.289208917E0,-8.945397949E-1,3.802692261E0,7.908953247E0,8.821123020E0
1.299230917E0,-8.318202209E-1,3.867657166E0,8.003855896E0,8.928180444E0
1.309251917E0,-8.135581970E-1,3.845203857E0,8.056097260E0,8.963714225E0
1.319273917E0,-8.081694031E-1,3.773802338E0,8.046816559E0,8.924459569E0
1.329294917E0,-7.711962891E-1,3.809128876E0,8.027955780E0,8.919208514E0
1.339316917E0,-6.725514221E-1,3.923790436E0,8.023914185E0,8.957212493E0
1.349337917E0,-6.480024719E-1,3.965254211E0,8.069269867E0,9.014225666E0
1.359359917E0,-7.125183105E-1,3.970643005E0,8.270301819E0,9.201716166E0
1.369381917E0,-7.605683899E-1,4.026776276E0,8.435258789E0,9.378005240E0
1.379402917E0,-7.738906860E-1,4.093986511E0,8.521928558E0,9.485931620E0
1.389424917E0,-7.752378845E-1,4.000431061E0,8.672814789E0,9.582387949E0
1.399445917E0,-7.476951599E-1,3.814068604E0,8.928932190E0,9.738172180E0
1.409467917E0,-6.677613831E-1,3.690575409E0,9.145831146E0,9.884962290E0
1.419488917E0,-6.077362061E-1,3.560944977E0,9.387279053E0,1.005836371E1
1.429510917E0,-5.920188904E-1,3.546724548E0,9.582772522E0,1.023519763E1
1.439532917E0,-6.007008362E-1,3.723656616E0,9.653874664E0,1.036454322E1
1.449553917E0,-5.848338318E-1,3.871998138E0,9.663305054E0,1.042659411E1
1.459575917E0,-5.620811462E-1,3.960763550E0,9.586365051E0,1.038758769E1
1.469596917E0,-5.044509888E-1,3.993994446E0,9.455088043E0,1.027643675E1
1.479618917E0,-4.715194702E-1,4.048780518E0,9.368717651E0,1.021703600E1
1.489639917E0,-4.824467468E-1,4.068838806E0,9.302704926E0,1.016506385E1
1.499661917E0,-5.831872559E-1,4.165238342E0,9.321865082E0,1.022675346E1
1.509682917E0,-6.680607605E-1,4.356989594E0,9.316027222E0,1.030621301E1
1.519704917E0,-7.285350037E-1,4.512216797E0,9.280251617E0,1.034475392E1
1.529726917E0,-7.524851990E-1,4.574038239E0,9.238189087E0,1.033596620E1
1.539747917E0,-7.370672607E-1,4.581522675E0,9.186396790E0,1.029191450E1
1.549769917E0,-5.827381897E-1,4.780458984E0,9.125922546E0,1.031866436E1
1.559790917E0,-5.120851135E-1,4.759053497E0,9.198222198E0,1.036909412E1
1.569812917E0,-4.540058899E-1,4.674329681E0,9.224268036E0,1.035097097E1
1.579833917E0,-4.162843323E-1,4.567451935E0,9.291178894E0,1.036151123E1
1.589855917E0,-4.019142151E-1,4.290827179E0,9.363927612E0,1.030804895E1
1.599876917E0,-4.101470947E-1,4.015699310E0,9.637708282E0,1.044889863E1
1.609898917E0,-3.975732422E-1,3.806883545E0,1.010803024E1,1.080845513E1
1.619919917E0,-3.245251465E-1,3.650309143E0,1.051757858E1,1.113775259E1
1.629941917E0,-1.785786438E-1,3.523223419E0,1.064705933E1,1.121627683E1
1.639963917E0,-1.318757629E-1,3.225791931E0,1.046384033E1,1.095057438E1
1.649984917E0,-2.112107849E-1,2.965034180E0,1.027822632E1,1.069943802E1
1.660006917E0,-3.730242920E-1,2.781066742E0,1.034783157E1,1.072152497E1
1.670027917E0,-5.321434021E-1,2.838098145E0,1.061936691E1,1.100495031E1
1.680049917E0,-8.155041504E-1,2.931952972E0,1.106888214E1,1.147961441E1
1.690070917E0,-1.119671631E0,2.910397797E0,1.146196472E1,1.187858220E1
1.700092917E0,-1.231638794E0,2.685715027E0,1.191088120E1,1.227188210E1
1.710113917E0,-1.120869141E0,2.404449921E0,1.219603821E1,1.248122891E1
1.720135917E0,-9.291178894E-1,2.194885712E0,1.214858688E1,1.238018363E1
1.730157917E0,-6.390211487E-1,2.139500885E0,1.168694687E1,1.189834187E1
1.740178917E0,-3.567082214E-1,2.219135284E0,1.079854431E1,1.102997559E1
1.750200958E0,-1.627116394E-1,2.313289490E0,9.642498322E0,9.917437029E0
1.760221958E0,5.822891235E-2,2.490520935E0,8.530311127E0,8.886635643E0
1.770243958E0,2.628533936E-1,2.695744171E0,7.648943939E0,8.114337430E0
1.780264958E0,3.273692322E-1,2.844983826E0,7.184609528E0,7.734320762E0
1.790286958E0,3.291654968E-1,3.005001068E0,7.172484741E0,7.783502984E0
1.800308958E0,2.151026917E-1,3.119063873E0,7.481591949E0,8.108578588E0
1.810329958E0,-1.796264648E-2,3.147654419E0,8.067922668E0,8.660220966E0
1.820351958E0,-2.703378296E-1,3.195554810E0,8.662186890E0,9.236781625E0
1.830372958E0,-3.975732422E-1,3.231629791E0,8.996741180E0,9.567802645E0
1.840394958E0,-5.417234802E-1,3.176095276E0,9.045390015E0,9.602089671E0
1.850415958E0,-6.628216553E-1,3.103496246E0,8.905730438E0,9.454261269E0
1.860437958E0,-7.240443420E-1,3.047812042E0,8.684191132E0,9.231932304E0
1.870458958E0,-7.328759766E-1,3.018922119E0,8.580456848E0,9.125526707E0
1.880480958E0,-6.996450806E-1,3.012036438E0,8.515941010E0,9.059973401E0
1.890502958E0,-6.721023560E-1,2.966231689E0,8.437354431E0,8.968790432E0
1.900523958E0,-6.001020813E-1,2.996169434E0,8.282127228E0,8.827841480E0
1.910545958E0,-5.245092773E-1,2.991978149E0,8.119565277E0,8.669162792E0
1.920566958E0,-3.531156921E-1,2.880460052E0,8.041427765E0,8.549052655E0
1.930588958E0,-2.558180237E-1,2.745740204E0,8.043822784E0,8.503388567E0
1.940609958E0,-1.396595764E-1,2.677332458E0,8.084089050E0,8.517048178E0
1.950631958E0,-3.158432007E-2,2.677182770E0,8.073161774E0,8.505542086E0
1.960652958E0,-5.059478760E-2,2.728675690E0,8.077652435E0,8.526235964E0
1.970674958E0,-9.669891357E-2,2.760260010E0,8.113577728E0,8.570795153E0
1.980696958E0,-1.080752563E-1,2.834505615E0,8.060887299E0,8.545408497E0
1.990717958E0,-1.088237000E-1,2.961591339E0,7.983348541E0,8.515674946E0
2.000739958E0,-1.594184875E-1,3.077749786E0,7.927215271E0,8.505216044E0
2.010760958E0,-3.171903992E-1,3.247945862E0,7.979606323E0,8.621129807E0
2.020782958E0,-4.649331665E-1,3.382965088E0,8.076005859E0,8.768265865E0
2.030803958E0,-6.242019653E-1,3.517834625E0,8.283025360E0,9.020714920E0
2.040825958E0,-8.105644226E-1,3.752546539E0,8.510851593E0,9.336659737E0
2.050846958E0,-9.289682007E-1,3.946094055E0,8.705596619E0,9.603231367E0
2.060868958E0,-9.421408081E-1,3.967499542E0,8.865763550E0,9.758608776E0
2.070890958E0,-8.646020508E-1,3.871998138E0,8.996741180E0,9.832662821E0
2.080911958E0,-7.294331360E-1,3.836821289E0,9.079818420E0,9.884147553E0
2.090933958E0,-5.908213806E-1,3.832630005E0,9.023236084E0,9.821247990E0
2.100954958E0,-5.285508728E-1,3.798051910E0,8.975784760E0,9.760598157E0
2.110976958E0,-5.019062805E-1,3.835773468E0,9.038803711E0,9.831838106E0
2.120997958E0,-4.879852295E-1,3.871399384E0,9.146729279E0,9.944270675E0
2.131019958E0,-5.072950745E-1,3.842509460E0,9.327403564E0,1.010062793E1
2.141040958E0,-5.331912231E-1,3.783831482E0,9.554481354E0,1.029027636E1
2.151062958E0,-5.369334412E-1,3.728596344E0,9.746981049E0,1.044961089E1
2.161084958E0,-5.098397827E-1,3.739972687E0,9.780211945E0,1.048331427E1
2.171105958E0,-4.704716492E-1,3.784879303E0,9.754166107E0,1.047331902E1
2.181127958E0,-4.754113770E-1,3.849993896E0,9.813592529E0,1.055249105E1
2.191148958E0,-5.084925842E-1,3.867657166E0,9.812694397E0,1.055965473E1
2.201170958E0,-4.860392761E-1,3.856430511E0,9.789792023E0,1.053320076E1
2.211191958E0,-3.427871704E-1,3.833827515E0,9.695488129E0,1.043159751E1
2.221213958E0,-1.939965820E-1,3.726949768E0,9.525591431E0,1.023057581E1
2.231234958E0,-7.319778442E-2,3.489094391E0,9.437574463E0,1.006215431E1
2.241256958E0,-1.493893433E-1,3.153492279E0,9.555529175E0,1.006354652E1
2.251278958E0,-3.540138245E-1,3.015030212E0,9.884395294E0,1.034006786E1
2.261299958E0,-5.861810303E-1,3.359014893E0,1.015413437E1,1.071135071E1
2.271321958E0,-1.013392639E0,3.762425995E0,1.044273422E1,1.114600879E1
2.281342958E0,-1.613794098E0,4.014651489E0,1.096619568E1,1.178894421E1
2.291364958E0,-2.231559448E0,4.036356354E0,1.154159912E1,1.242902009E1
2.301385958E0,-2.668800201E0,3.741918640E0,1.211041626E1,1.295324792E1
2.311407958E0,-2.809956665E0,3.263064423E0,1.277263916E1,1.347901172E1
2.321428958E0,-2.696043549E0,2.554587708E0,1.330867447E1,1.381721337E1
2.331450958E0,-2.377505951E0,2.029779053E0,1.350491638E1,1.386200938E1
2.341472958E0,-1.998643799E0,1.758842468E0,1.316542236E1,1.343191907E1
2.351493958E0,-1.718725891E0,1.636846161E0,1.217538116E1,1.240456330E1
2.361515958E0,-1.524579620E0,1.804497528E0,1.089015381E1,1.114342875E1
2.371536958E0,-1.394051056E0,2.150128784E0,9.588161316E0,9.924679821E0
2.381558958E0,-1.363215179E0,2.455942841E0,8.514593811E0,8.965953303E0
2.391579958E0,-1.359323273E0,2.695145416E0,7.900271301E0,8.457295975E0
2.401601958E0,-1.364712067E0,2.840642853E0,7.679480438E0,8.300970464E0
2.411622958E0,-1.403481445E0,2.891537018E0,7.742499390E0,8.383140419E0
2.421644958E0,-1.543290710E0,2.896027679E0,8.119714966E0,8.757767619E0
2.431666958E0,-1.689237213E0,2.919828186E0,8.605305176E0,9.242845675E0
2.441687958E0,-1.846410370E0,2.851570129E0,9.046288147E0,9.663126445E0
2.451709958E0,-1.933678894E0,2.875220947E0,9.268875275E0,9.895355396E0
2.461730958E0,-1.969903564E0,3.036435699E0,9.293424225E0,9.973374335E0
2.471752958E0,-1.999392242E0,3.196752319E0,9.155111847E0,9.901154865E0
2.481773958E0,-1.988914032E0,3.336860962E0,8.891060944E0,9.702648340E0
2.491795958E0,-1.954635315E0,3.376977539E0,8.531508636E0,9.381429322E0
2.501816958E0,-1.924697571E0,3.349434814E0,8.258476410E0,9.117324549E0
2.511838958E0,-1.851200409E0,3.374582520E0,8.153694305E0,9.016511574E0
2.521860958E0,-1.764380951E0,3.418291626E0,8.168812866E0,9.029244787E0
2.531881958E0,-1.646276550E0,3.349584503E0,8.185578003E0,8.996312026E0
2.541903958E0,-1.470991058E0,3.275039520E0,8.040529633E0,8.805669499E0
2.551924958E0,-1.251697083E0,3.218457184E0,7.760462036E0,8.494114624E0
2.561946958E0,-1.019380188E0,3.059338074E0,7.517666931E0,8.180097891E0
2.571967958E0,-8.596623230E-1,2.981949005E0,7.340734863E0,7.969782150E0
2.581989958E0,-7.482939148E-1,3.030747528E0,7.168143768E0,7.818417963E0
2.592010958E0,-7.244934082E-1,3.133883057E0,7.076983337E0,7.773661098E0
2.602032958E0,-8.440946960E-1,3.231929169E0,7.137607269E0,7.880564671E0
2.612054958E0,-9.735754395E-1,3.426524506E0,7.328909454E0,8.148731994E0
2.622075958E0,-1.072369995E0,3.622467041E0,7.535779266E0,8.429722061E0
2.632097958E0,-1.154998169E0,3.751498718E0,7.636370087E0,8.586146487E0
2.642118958E0,-1.219364319E0,3.769910431E0,7.727231140E0,8.683845640E0
2.652140958E0,-1.293460236E0,3.766916656E0,7.878865814E0,8.828319602E0
2.662161958E0,-1.332229614E0,3.763024750E0,7.995922394E0,8.936999829E0
2.672183958E0,-1.329235840E0,3.762276306E0,8.085885315E0,9.016824954E0
2.682204958E0,-1.293160858E0,3.828887787E0,8.188272400E0,9.131289700E0
2.692226958E0,-1.241069183E0,3.768114166E0,8.218359833E0,9.125808207E0
2.702248958E0,-1.166524200E0,3.621868286E0,8.221054230E0,9.058942612E0
2.712269958E0,-1.046324158E0,3.531755676E0,8.159083099E0,8.952023761E0
2.722291958E0,-9.346563721E-1,3.504512329E0,8.117319946E0,8.890785809E0
2.732312958E0,-9.029223633E-1,3.473377075E0,8.237669678E0,8.985478219E0
2.742334958E0,-8.964857483E-1,3.495381317E0,8.632099457E0,9.355988365E0
2.752355792E0,-9.689350891E-1,3.623814240E0,9.071585541E0,9.816543642E0
2.762377792E0,-1.096170502E0,3.764072571E0,9.435478821E0,1.021753848E1
2.772399792E0,-1.190474396E0,3.864513702E0,9.790091400E0,1.059233615E1
2.782420792E0,-1.260828094E0,3.924838257E0,1.005279510E1,1.086520742E1
2.792442792E0,-1.321452026E0,3.904779968E0,1.037163208E1,1.116083752E1
2.802463792E0,-1.322499847E0,3.877835999E0,1.075034454E1,1.150463062E1
2.812485792E0,-1.261426849E0,3.998934174E0,1.102771774E1,1.179801809E1
2.822506792E0,-1.220561829E0,4.144431610E0,1.122246277E1,1.202537963E1
2.832528792E0,-1.198258209E0,4.268224182E0,1.126347748E1,1.210452334E1
2.842549792E0,-1.193318481E0,4.343517609E0,1.117740646E1,1.205091571E1
2.852571792E0,-1.179547119E0,4.374652863E0,1.113714020E1,1.202351075E1
2.862592792E0,-1.168769531E0,4.414470062E0,1.116887421E1,1.206637142E1
2.872614792E0,-1.285676422E0,4.280199280E0,1.132934052E1,1.217895834E1
2.882636792E0,-1.492845612E0,4.091591492E0,1.158860138E1,1.238004002E1
2.892657792E0,-1.690135345E0,3.857628021E0,1.186088516E1,1.258643906E1
2.902679792E0,-1.782193909E0,3.613336029E0,1.211730194E1,1.276955045E1
2.912700792E0,-1.712738342E0,3.385210419E0,1.224408829E1,1.281837822E1
2.922722792E0,-1.648521881E0,3.056793365E0,1.232327362E1,1.280330749E1
2.932743792E0,-1.581161957E0,2.702629852E0,1.237731125E1,1.276722816E1
2.942765792E0,-1.558259583E0,2.415377197E0,1.229603027E1,1.262753263E1
2.952786792E0,-1.487157440E0,2.276166687E0,1.212044540E1,1.242166530E1
2.962808792E0,-1.344354401E0,2.205812988E0,1.173649384E1,1.201741184E1
2.972830792E0,-1.109941864E0,2.197280731E0,1.106573868E1,1.133625097E1
2.982851792E0,-7.887098694E-1,2.168390808E0,1.010129425E1,1.036147323E1
2.992873792E0,-4.415817261E-1,2.038610687E0,9.079968109E0,9.316477275E0
3.002894792E0,-1.273851013E-1,1.945504303E0,8.258177032E0,8.485204880E0
3.012916792E0,7.005432129E-2,2.015259247E0,7.672145691E0,7.932716870E0
3.022937792E0,5.897735596E-2,2.149829407E0,7.372768250E0,7.680036228E0
3.032959792E0,-1.161584473E-1,2.303709412E0,7.423063660E0,7.773187502E0
3.042980792E0,-3.676354980E-1,2.417772217E0,7.929610291E0,8.298162309E0
3.053002792E0,-6.436614990E-1,2.584375763E0,8.535999298E0,8.941844453E0
3.063024792E0,-8.511300659E-1,2.807861023E0,8.886121216E0,9.357972867E0
3.073045792E0,-9.261241150E-1,2.972069550E0,9.063502350E0,9.583213351E0
3.083067792E0,-9.479786682E-1,2.972668304E0,9.021290131E0,9.545632301E0
3.093088792E0,-9.023236084E-1,2.879561920E0,8.773106232E0,9.277578224E0
3.103110792E0,-7.198530579E-1,2.763104095E0,8.352630615E0,8.827194960E0
3.113131792E0,-5.161267090E-1,2.578388214E0,7.984546051E0,8.406393293E0
3.123153792E0,-4.102967834E-1,2.464175720E0,7.791746979E0,8.182409572E0
3.133174792E0,-3.962260437E-1,2.514620819E0,7.728877716E0,8.137313051E0
3.143196792E0,-4.070036316E-1,2.652484131E0,7.864944763E0,8.310155242E0
3.153218792E0,-4.330494690E-1,2.778372345E0,8.027207336E0,8.505465440E0
3.163239792E0,-4.252656555E-1,2.787353668E0,7.955356750E0,8.440254284E0
3.173261792E0,-3.811074829E-1,2.775528259E0,7.877668304E0,8.361008190E0
3.183282792E0,-2.871029663E-1,2.759960632E0,7.715555420E0,8.199366210E0
3.193304792E0,-2.582130432E-1,2.783162384E0,7.514224091E0,8.017245819E0
3.203325792E0,-2.676434326E-1,2.875670013E0,7.422464905E0,7.964552486E0
3.213347792E0,-2.450404358E-1,2.987786865E0,7.374564514E0,7.960597775E0
3.223368792E0,-2.447410583E-1,2.993175659E0,7.310497742E0,7.903314238E0
3.233390792E0,-2.405497742E-1,2.992277527E0,7.398065643E0,7.983919104E0
3.243412792E0,-1.785786438E-1,2.996468811E0,7.588469696E0,8.160611987E0
3.253433792E0,-1.736389160E-1,2.882555695E0,7.832312622E0,8.347718180E0
3.263455792E0,-2.160008240E-1,2.825823669E0,8.202193451E0,8.678013204E0
3.273476792E0,-2.344125366E-1,2.919977875E0,8.424780579E0,8.919537422E0
3.283498792E0,-1.799258423E-1,3.045866089E0,8.404722290E0,8.941422164E0
3.293519792E0,-1.122665405E-1,3.115770721E0,8.230334930E0,8.801081981E0
3.303541792E0,-1.047821045E-1,3.211870880E0,7.986042938E0,8.608366608E0
3.313562792E0,-1.255888367E-1,3.404071198E0,7.753276978E0,8.468575864E0
3.323584792E0,-1.926493835E-1,3.578907623E0,7.560777283E0,8.367260405E0
3.333606792E0,-2.793191528E-1,3.627257080E0,7.469018097E0,8.307902530E0
3.343627792E0,-3.746708679E-1,3.498524780E0,7.330705719E0,8.131377512E0
3.353649792E0,-4.989125061E-1,3.347488861E0,7.308102722E0,8.053754451E0
3.363670792E0,-6.261479187E-1,3.316802673E0,7.666607208E0,8.376759951E0
3.373692792E0,-7.830216980E-1,3.240311737E0,8.391699371E0,9.029582575E0
3.383713792E0,-8.698411560E-1,3.231929169E0,9.486672363E0,1.005976850E1
3.393735792E0,-9.139993286E-1,3.147953796E0,1.051697983E1,1.101598260E1
3.403756792E0,-9.692344666E-1,3.083887024E0,1.141466309E1,1.186357063E1
3.413778792E0,-9.110055542E-1,3.070714417E0,1.189696014E1,1.232058760E1
3.423800792E0,-7.688012695E-1,3.062182159E0,1.187869812E1,1.229111403E1
3.433821792E0,-6.011499023E-1,3.103945312E0,1.157827286E1,1.200217731E1
3.443843792E0,-4.987628174E-1,3.041525116E0,1.139849670E1,1.180785190E1
3.453864792E0,-3.908372498E-1,3.001258850E0,1.122515717E1,1.162602519E1
3.463886792E0,-3.860472107E-1,3.085084534E0,1.116543137E1,1.159023885E1
3.473907792E0,-5.249583435E-1,3.013982391E0,1.158426041E1,1.198143398E1
3.483929792E0,-7.297325134E-1,2.847229156E0,1.227971420E1,1.262658324E1
3.493950792E0,-9.370513916E-1,2.646496582E0,1.301019516E1,1.330966519E1
3.503972792E0,-1.125210114E0,2.408341827E0,1.357571915E1,1.383352300E1
3.513994792E0,-1.297202454E0,2.195634155E0,1.379725845E1,1.403096163E1
3.524015792E0,-1.406325531E0,2.066901855E0,1.362930771E1,1.385669020E1
3.534037792E0,-1.475032654E0,1.958826599E0,1.321916061E1,1.344466178E1
3.544058792E0,-1.468895416E0,1.938917999E0,1.277488449E1,1.300441196E1
3.554080792E0,-1.334175568E0,1.951042786E0,1.224738144E1,1.247336941E1
3.564101792E0,-1.086141357E0,1.944306793E0,1.143247604E1,1.164738342E1
3.574123792E0,-8.129594421E-1,1.932930450E0,1.049243088E1,1.069991724E1
3.584144792E0,-6.132746887E-1,1.940414886E0,9.620494080E0,9.833372876E0
3.594166792E0,-5.011578369E-1,1.987117767E0,8.847052460E0,9.081306813E0
3.604188792E0,-4.577481079E-1,2.038460999E0,8.212072906E0,8.473664968E0
3.614209792E0,-4.888833618E-1,2.154619446E0,7.817493439E0,8.123705778E0
3.624231792E0,-6.044430542E-1,2.337389374E0,7.721542969E0,8.090177149E0
3.634252792E0,-8.047265625E-1,2.502945099E0,7.919730835E0,8.344726209E0
3.644274792E0,-1.087638245E0,2.538720703E0,8.344397736E0,8.789598019E0
3.654295792E0,-1.338217163E0,2.515219574E0,8.829239502E0,9.277533339E0
3.664317792E0,-1.513053589E0,2.557132416E0,9.251212006E0,9.716644530E0
3.674338792E0,-1.639390869E0,2.557282104E0,9.611213379E0,1.007981730E1
3.684360792E0,-1.695673828E0,2.550845490E0,9.904303894E0,1.036712873E1
3.694382792E0,-1.690584412E0,2.512974243E0,1.002734802E1,1.047477081E1
3.704403792E0,-1.644629974E0,2.428250427E0,9.909243622E0,1.033413359E1
3.714425792E0,-1.559457092E0,2.322719879E0,9.595046997E0,9.994591584E0
3.724446792E0,-1.484313354E0,2.315983887E0,9.223070526E0,9.624551804E0
3.734468792E0,-1.405876465E0,2.305206299E0,8.904532928E0,9.304900396E0
3.744489792E0,-1.385069733E0,2.385439453E0,8.637937317E0,9.067673386E0
3.754518292E0,-1.337169342E0,2.615211639E0,8.415799255E0,8.913642963E0
3.764539292E0,-1.227148132E0,2.778522034E0,8.144263916E0,8.692244357E0
3.774561292E0,-1.106349335E0,2.863395538E0,7.828121338E0,8.408479443E0
3.784583292E0,-1.018931122E0,2.937192078E0,7.580536194E0,8.193280596E0
3.794604292E0,-9.102571106E-1,2.910697174E0,7.334447937E0,7.943226837E0
3.804626292E0,-7.948471069E-1,2.888543243E0,7.142546997E0,7.745414230E0
3.814647292E0,-7.699987793E-1,2.887944489E0,6.997648315E0,7.609218320E0
3.824669292E0,-8.110134888E-1,2.967429199E0,6.998396759E0,7.644667169E0
3.834690292E0,-8.843609619E-1,3.187770996E0,7.070995789E0,7.806597189E0
3.844712292E0,-1.008602600E0,3.382516022E0,7.224576416E0,8.040721251E0
3.854733292E0,-1.118174744E0,3.530408478E0,7.454049225E0,8.323277517E0
3.864755292E0,-1.174457703E0,3.621269531E0,7.675588531E0,8.567823715E0
3.874777292E0,-1.208886108E0,3.657494202E0,7.940687256E0,8.825711504E0
3.884798292E0,-1.276395721E0,3.629652100E0,8.344098358E0,9.188445887E0
3.894820292E0,-1.333576813E0,3.757486267E0,8.814869385E0,9.674660327E0
3.904841292E0,-1.270857239E0,3.795357513E0,8.994346161E0,9.844698047E0
3.914863292E0,-1.114133148E0,3.669319611E0,8.935219116E0,9.723339947E0
3.924884292E0,-9.157955933E-1,3.480861511E0,8.837622070E0,9.542465210E0
3.934906292E0,-7.911048889E-1,3.281326447E0,8.647667084E0,9.283054249E0
3.944927292E0,-7.274871826E-1,3.186423798E0,8.471483459E0,9.080119285E0
3.954949292E0,-7.234455872E-1,3.278632050E0,8.409512329E0,9.054982013E0
3.964971292E0,-7.598199463E-1,3.521427155E0,8.422684937E0,9.160753086E0
3.974992292E0,-8.815168762E-1,3.832779694E0,8.610693970E0,9.466325730E0
3.985014292E0,-1.012943573E0,4.121529236E0,8.911119232E0,9.870212961E0
3.995035292E0,-1.126257935E0,4.331392822E0,9.150172119E0,1.018602329E1
4.005057292E0,-1.189725952E0,4.436324615E0,9.362580414E0,1.042853470E1
4.015078292E0,-1.215622101E0,4.472549286E0,9.541757812E0,1.060785447E1
4.025100292E0,-1.232836304E0,4.536166992E0,9.755513306E0,1.082897669E1
4.035121292E0,-1.296004944E0,4.648433533E0,9.948312378E0,1.105696533E1
4.045143292E0,-1.397194519E0,4.784500580E0,1.016476227E1,1.132104193E1
4.055165292E0,-1.471140747E0,4.891977081E0,1.039558228E1,1.158291093E1
4.065186292E0,-1.509311371E0,4.941973114E0,1.061472656E1,1.180565708E1
4.075208292E0,-1.457219696E0,4.846322021E0,1.087219116E1,1.199228365E1
4.085229292E0,-1.345402222E0,4.569248199E0,1.122051682E1,1.218967325E1
4.095251292E0,-1.153800659E0,4.185596008E0,1.165506317E1,1.243748236E1
4.105272292E0,-9.930349731E-1,3.746558990E0,1.199096466E1,1.260182750E1
4.115294292E0,-8.943901062E-1,3.337908783E0,1.219424194E1,1.267442722E1
4.125315292E0,-8.931925964E-1,3.012186127E0,1.235186417E1,1.274517974E1
4.135337292E0,-9.948312378E-1,2.712359619E0,1.249242188E1,1.282213665E1
4.145359292E0,-1.114731903E0,2.560874634E0,1.262564484E1,1.293087830E1
4.155380292E0,-1.172661438E0,2.442171478E0,1.272294250E1,1.300817444E1
4.165402292E0,-1.188229065E0,2.320773926E0,1.267893402E1,1.294423609E1
4.175423292E0,-1.097068634E0,2.341131592E0,1.230695755E1,1.257559783E1
4.185445292E0,-9.053173828E-1,2.479144592E0,1.158126663E1,1.187819407E1
4.195466292E0,-6.384223938E-1,2.508483582E0,1.045426025E1,1.076994106E1
4.205488292E0,-3.453318787E-1,2.437830505E0,9.292825470E0,9.613473716E0
4.215509292E0,-1.154100037E-1,2.319127350E0,8.359965363E0,8.676444663E0
4.225531292E0,1.163081360E-1,2.324067078E0,7.626041565E0,7.973162817E0
4.235553292E0,2.058219910E-1,2.370769958E0,7.244634705E0,7.625460307E0
4.245574292E0,2.094145203E-1,2.424957275E0,7.144942017E0,7.548143391E0
4.255596292E0,1.800755310E-1,2.451003113E0,7.372917938E0,7.771728404E0
4.265617292E0,4.430786133E-2,2.454595642E0,7.909252625E0,8.281502281E0
4.275639292E0,-1.047821045E-1,2.486030273E0,8.399932251E0,8.760718443E0
4.285660292E0,-1.938468933E-1,2.509232025E0,8.759035492E0,9.113425521E0
4.295682292E0,-2.583627319E-1,2.552492065E0,9.045539703E0,9.402327136E0
4.305703292E0,-2.857557678E-1,2.602787476E0,9.054071960E0,9.425093000E0
4.315725292E0,-2.829116821E-1,2.657872925E0,8.828041992E0,9.223809024E0
4.325747292E0,-2.776725769E-1,2.665507050E0,8.521180115E0,8.932667040E0
4.335768292E0,-2.680924988E-1,2.706671448E0,8.201894073E0,8.641123209E0
4.345790292E0,-2.627037048E-1,2.776875458E0,7.891289978E0,8.369737634E0
4.355811292E0,-2.354603577E-1,2.863096161E0,7.606432343E0,8.130840927E0
4.365833292E0,-2.185455322E-1,2.905458069E0,7.481591949E0,8.028926880E0
4.375854292E0,-1.875599670E-1,2.907553711E0,7.404053192E0,7.956698498E0
4.385876292E0,-1.707948303E-1,2.949466553E0,7.335495758E0,7.908098497E0
4.395897292E0,-2.073188782E-1,3.054847412E0,7.328460388E0,7.942380342E0
4.405919292E0,-2.727328491E-1,3.197051697E0,7.309749298E0,7.982979241E0
4.415941292E0,-3.556604004E-1,3.430566101E0,7.303612061E0,8.077006081E0
4.425962292E0,-4.472698975E-1,3.692820740E0,7.397915955E0,8.280467127E0
4.435984292E0,-5.044509888E-1,3.819457397E0,7.520810394E0,8.450166543E0
4.446005292E0,-5.276527405E-1,3.893104248E0,7.668403473E0,8.616210880E0
4.456027292E0,-5.632786560E-1,3.942800903E0,7.840395813E0,8.794018894E0
4.466048292E0,-5.770500183E-1,4.006717987E0,8.008795624E0,8.973716237E0
4.476070292E0,-5.789959717E-1,3.993395691E0,8.154891815E0,9.098610113E0
4.486091292E0,-5.578898621E-1,3.968547363E0,8.313711548E0,9.229214971E0
4.496113292E0,-5.011578369E-1,3.975133667E0,8.481662292E0,9.380375371E0
4.506135292E0,-4.547543335E-1,3.988306274E0,8.642427979E0,9.529163122E0
4.516156292E0,-3.763174438E-1,4.011657715E0,8.670270081E0,9.560784262E0
4.526178292E0,-2.688409424E-1,4.113146667E0,8.637488251E0,9.570603651E0
4.536199292E0,-2.481838989E-1,4.202660522E0,8.669072571E0,9.637259463E0
4.546221292E0,-2.872526550E-1,4.317920837E0,8.792116699E0,9.799401538E0
4.556242292E0,-3.198847961E-1,4.413272552E0,8.872050476E0,9.914261473E0
4.566264292E0,-4.296066284E-1,4.494852905E0,9.118587799E0,1.017530874E1
4.576285292E0,-5.897735596E-1,4.430037689E0,9.563163300E0,1.055590636E1
4.586307292E0,-6.565347290E-1,4.547693024E0,9.878407745E0,1.089474595E1
4.596329292E0,-7.869136047E-1,4.484674072E0,1.024694138E1,1.121299880E1
4.606350292E0,-8.753796387E-1,4.413122864E0,1.058209442E1,1.149881147E1
4.616372292E0,-8.789721680E-1,4.472399597E0,1.087967560E1,1.179585908E1
4.626393292E0,-7.710466003E-1,4.561763763E0,1.101110229E1,1.194355790E1
4.636415292E0,-6.108796692E-1,4.692292328E0,1.093042007E1,1.191070377E1
4.646436292E0,-5.056484985E-1,4.680317230E0,1.081875229E1,1.179857834E1
4.656458292E0,-4.773573303E-1,4.528682556E0,1.067864365E1,1.160905964E1
4.666479292E0,-4.478686523E-1,4.338278503E0,1.041219772E1,1.128871596E1
4.676501292E0,-4.971162415E-1,4.304299164E0,1.008497818E1,1.097637922E1
4.686523292E0,-7.929011536E-1,4.308340759E0,9.973909149E0,1.089354653E1
4.696544292E0,-1.257385254E0,4.342170410E0,1.023691223E1,1.119061364E1
4.706566292E0,-1.741628265E0,4.292324066E0,1.080483124E1,1.175592161E1
4.716587292E0,-2.101030884E0,3.965254211E0,1.142409348E1,1.227385365E1
4.726609292E0,-2.345322876E0,3.310366058E0,1.202224960E1,1.268832331E1
4.736630292E0,-2.309098206E0,2.534080353E0,1.255454269E1,1.301422453E1
4.746652292E0,-2.102976837E0,1.876348114E0,1.263103363E1,1.294164612E1
4.756670042E0,-1.731299744E0,1.455273743E0,1.227911545E1,1.248566765E1
4.766692042E0,-1.244062958E0,1.280437317E0,1.166943329E1,1.180520587E1
4.776714042E0,-9.029223633E-1,1.258732452E0,1.080857346E1,1.091901719E1
4.786735042E0,-6.836283875E-1,1.298699341E0,9.739047546E0,9.849010857E0
4.796757042E0,-4.755610657E-1,1.466949463E0,8.590785370E0,8.728097864E0
4.806778042E0,-3.098556519E-1,1.746118927E0,7.766748962E0,7.966638644E0
4.816800042E0,-2.915936279E-1,1.879192200E0,7.281009064E0,7.525256351E0
4.826821042E0,-3.890409851E-1,2.058219910E0,7.223528595E0,7.521102808E0
4.836843042E0,-5.749543762E-1,2.340532837E0,7.560477905E0,7.935331918E0
4.846864042E0,-8.788224792E-1,2.534230042E0,8.028404846E0,8.464628475E0
4.856886042E0,-1.189276886E0,2.659818878E0,8.503067780E0,8.988391271E0
4.866908042E0,-1.374741211E0,2.852468262E0,8.776549072E0,9.330289502E0
4.876929042E0,-1.479373627E0,3.016826477E0,8.758736115E0,9.381111163E0
4.886951042E0,-1.477277985E0,3.086282043E0,8.488098907E0,9.151792729E0
4.896972042E0,-1.387913818E0,3.190315704E0,8.224347382E0,8.929966904E0
4.906994042E0,-1.312919769E0,3.192261658E0,8.067922668E0,8.775287402E0
4.917015042E0,-1.283431091E0,3.104095001E0,8.013735352E0,8.689220646E0
4.927037042E0,-1.207838287E0,3.055895233E0,8.072712708E0,8.715851046E0
4.937058042E0,-1.062041473E0,3.053649902E0,8.178392944E0,8.794249312E0
4.947080042E0,-8.922944641E-1,3.015479279E0,8.282127228E0,8.859059550E0
4.957102042E0,-6.920109558E-1,2.950364685E0,8.292306061E0,8.828695869E0
4.967123042E0,-4.578977966E-1,2.924468536E0,8.119265900E0,8.642029007E0
4.977145042E0,-3.535647583E-1,2.886597290E0,7.874674530E0,8.394519099E0
4.987166042E0,-3.207829285E-1,2.895877991E0,7.618856506E0,8.156959329E0
4.997188042E0,-2.857557678E-1,2.996468811E0,7.445217590E0,8.030675355E0
5.007209042E0,-3.376977539E-1,3.115920410E0,7.307953033E0,7.951677642E0
5.017231042E0,-4.831951904E-1,3.260519714E0,7.269782410E0,7.982117682E0
5.027252042E0,-6.195616150E-1,3.417094116E0,7.330705719E0,8.111697426E0
5.037274042E0,-7.906558228E-1,3.534150696E0,7.551496582E0,8.374990054E0
5.047296042E0,-9.175918579E-1,3.651955719E0,7.860903168E0,8.716223609E0
5.057317042E0,-1.011895752E0,3.793112183E0,8.065976715E0,8.970597160E0
5.067339042E0,-1.166374512E0,3.893703003E0,8.200546875E0,9.152612831E0
5.077360042E0,-1.297052765E0,3.959116974E0,8.401728516E0,9.377952609E0
5.087382042E0,-1.314117279E0,4.078568573E0,8.592881012E0,9.602043007E0
5.097403042E0,-1.287921753E0,4.082909546E0,8.657995605E0,9.658663505E0
5.107425042E0,-1.236728210E0,3.973187714E0,8.758287048E0,9.696561725E0
5.117446042E0,-1.108894043E0,3.945195923E0,8.893605652E0,9.792366331E0
5.127468042E0,-9.951306152E-1,3.949387207E0,8.941506042E0,9.825399461E0
5.137490042E0,-9.373507690E-1,3.901935883E0,8.979377289E0,9.835290875E0
5.147511042E0,-8.954379272E-1,3.878135376E0,9.051227875E0,9.887692811E0
5.157533042E0,-9.074130249E-1,3.941753082E0,9.097481689E0,9.956153316E0
5.167554042E0,-9.189390564E-1,4.051325226E0,9.143436127E0,1.004291339E1
5.177576042E0,-9.024732971E-1,4.187841339E0,9.199569397E0,1.014813038E1
5.187597042E0,-9.087602234E-1,4.206402740E0,9.276659088E0,1.022624433E1
5.197619042E0,-9.422904968E-1,4.227808228E0,9.384584656E0,1.033599066E1
5.207640042E0,-1.018631744E0,4.279750214E0,9.573641510E0,1.053605639E1
5.217662042E0,-1.174457703E0,4.271367645E0,9.819131012E0,1.077215235E1
5.227684042E0,-1.321452026E0,4.318968658E0,1.015892441E1,1.111770978E1
5.237705042E0,-1.372196503E0,4.452341309E0,1.051922516E1,1.150479745E1
5.247727042E0,-1.311572571E0,4.554728394E0,1.071397018E1,1.171558494E1
5.257748042E0,-1.182989960E0,4.574636993E0,1.078896423E1,1.177830710E1
5.267770042E0,-1.027912445E0,4.485123138E0,1.069570816E1,1.164350062E1
5.277791042E0,-9.247769165E-1,4.472249908E0,1.053868469E1,1.148564785E1
5.287813042E0,-9.193881226E-1,4.613705750E0,1.048569489E1,1.149266516E1
5.297834042E0,-9.003776550E-1,4.619393921E0,1.067280579E1,1.166440155E1
5.307856042E0,-8.701405334E-1,4.262985077E0,1.098834961E1,1.181837609E1
5.317878042E0,-7.099736023E-1,3.981869659E0,1.118953125E1,1.189810733E1
5.327899042E0,-7.185058594E-1,3.448977814E0,1.164727936E1,1.216843519E1
5.337921042E0,-7.370672607E-1,2.883154449E0,1.209230392E1,1.245309849E1
5.347942042E0,-7.955955505E-1,2.398761749E0,1.248867966E1,1.274182678E1
5.357964042E0,-8.942404175E-1,2.005529480E0,1.282877243E1,1.301534542E1
5.367985042E0,-9.969268799E-1,1.797162781E0,1.293684769E1,1.309907193E1
5.378007042E0,-1.001267853E0,1.924697571E0,1.271291336E1,1.289671137E1
5.388028042E0,-8.011340332E-1,2.110760651E0,1.190130112E1,1.211355004E1
5.398050042E0,-5.728587341E-1,2.200424194E0,1.071247330E1,1.095112405E1
5.408072042E0,-3.861968994E-1,2.237546997E0,9.595795441E0,9.860783678E0
5.418093042E0,-2.447410583E-1,2.211650848E0,8.684191132E0,8.964734981E0
5.428115042E0,-1.670526123E-1,2.243534546E0,7.946225739E0,8.258562667E0
5.438136042E0,-1.654060364E-1,2.363285522E0,7.577841797E0,7.939531719E0
5.448158042E0,-3.369493103E-1,2.511627045E0,7.597151642E0,8.008652716E0
5.458179042E0,-5.761518860E-1,2.746488647E0,7.760611725E0,8.252408450E0
5.468201042E0,-7.756869507E-1,2.925067291E0,7.867639160E0,8.429558402E0
5.478222042E0,-9.012757874E-1,3.003204803E0,7.929759979E0,8.527170132E0
5.488244042E0,-9.586065674E-1,2.943029938E0,7.984845428E0,8.563767178E0
5.498266042E0,-9.285191345E-1,2.829116821E0,7.936645660E0,8.476815092E0
5.508287042E0,-8.149053955E-1,2.776276703E0,7.731721802E0,8.255380376E0
5.518309042E0,-6.864724731E-1,2.738405457E0,7.454797668E0,7.971456403E0
5.528330042E0,-5.099894714E-1,2.628983002E0,7.217091980E0,7.697925534E0
5.538352042E0,-3.676354980E-1,2.538271637E0,7.101532288E0,7.550479428E0
5.548373042E0,-3.724255371E-1,2.480192413E0,7.093898163E0,7.524190743E0
5.558395042E0,-4.351451111E-1,2.652184753E0,7.249873810E0,7.732018203E0
5.568416042E0,-4.888833618E-1,2.917133789E0,7.398514709E0,7.967853939E0
5.578438042E0,-5.505551147E-1,3.032394104E0,7.449408875E0,8.061775085E0
5.588460042E0,-5.592370605E-1,3.085234222E0,7.451504517E0,8.084326556E0
5.598481042E0,-5.141807556E-1,3.067870331E0,7.489974518E0,8.110236032E0
5.608503042E0,-4.664300537E-1,3.081641693E0,7.509134674E0,8.130262977E0
5.618524042E0,-4.376898193E-1,3.179089050E0,7.480244751E0,8.139547967E0
5.628546042E0,-4.939727783E-1,3.319048004E0,7.536527710E0,8.249808403E0
5.638567042E0,-5.303471375E-1,3.534300385E0,7.698041840E0,8.487190080E0
5.648589042E0,-5.789959717E-1,3.700754242E0,7.822133789E0,8.672750158E0
5.658610042E0,-6.644682312E-1,3.767814789E0,7.962392120E0,8.833891249E0
5.668632042E0,-7.206015015E-1,3.788172455E0,8.183931427E0,9.046891769E0
5.678654042E0,-7.635621643E-1,3.720513153E0,8.462202759E0,9.275457985E0
5.688675042E0,-7.581733704E-1,3.611988831E0,8.840765533E0,9.580210091E0
5.698697042E0,-6.852749634E-1,3.516188049E0,9.245673523E0,9.915425309E0
5.708718042E0,-6.168672180E-1,3.497476959E0,9.489666138E0,1.013245447E1
5.718740042E0,-5.725593567E-1,3.530258789E0,9.588161316E0,1.023344462E1
5.728761042E0,-5.292993164E-1,3.613186340E0,9.426946564E0,1.010952990E1
5.738783042E0,-4.581971741E-1,3.725153503E0,9.099727020E0,9.843360459E0
5.748804042E0,-4.622387695E-1,3.720662842E0,8.834179230E0,9.596859868E0
5.758822917E0,-6.041436768E-1,3.599714355E0,8.686436462E0,9.422160657E0
5.768844917E0,-7.514373779E-1,3.505709839E0,8.786877594E0,9.490199021E0
5.778865917E0,-8.933422852E-1,3.511847076E0,9.198222198E0,9.886274422E0
5.788887917E0,-1.036444702E0,3.446732483E0,9.552535400E0,1.020809066E1
5.798908917E0,-1.164727936E0,3.361858978E0,9.852661285E0,1.047538168E1
5.808930917E0,-1.178798676E0,3.326532440E0,9.978399811E0,1.058413186E1
5.818951917E0,-1.138532410E0,3.266656952E0,9.917177124E0,1.050322359E1
5.828973917E0,-1.112785950E0,3.207380219E0,9.962233429E0,1.052481237E1
5.838995917E0,-1.072669373E0,3.275189209E0,1.003333557E1,1.060873728E1
5.849016917E0,-1.001567230E0,3.417842560E0,1.000983444E1,1.062457389E1
5.859038917E0,-9.581575012E-1,3.562292175E0,9.976004791E0,1.063619589E1
5.869059917E0,-9.232800293E-1,3.738326111E0,9.862989807E0,1.058801663E1
5.879081917E0,-1.043929138E0,3.889362030E0,9.762249298E0,1.056022899E1
5.889102917E0,-1.293909302E0,4.038751373E0,9.790390778E0,1.066946416E1
5.899124917E0,-1.577270050E0,4.096980286E0,1.000459534E1,1.092542705E1
5.909145917E0,-1.889371033E0,3.936963043E0,1.074330917E1,1.159690014E1
5.919167917E0,-2.203118591E0,3.483406219E0,1.193632828E1,1.262789702E1
5.929189917E0,-2.408042450E0,3.004252625E0,1.316093170E1,1.371256087E1
5.939210917E0,-2.445314941E0,2.522853699E0,1.415531387E1,1.458483002E1
5.949232917E0,-2.149829407E0,2.180515594E0,1.463506622E1,1.495197573E1
5.959253917E0,-1.675166473E0,1.923799438E0,1.413181274E1,1.436019911E1
5.969275917E0,-1.174158325E0,1.765728149E0,1.286335052E1,1.303695633E1
5.979296917E0,-9.099577332E-1,1.674268341E0,1.127919479E1,1.143903111E1
5.989318917E0,-8.331674194E-1,1.782493286E0,9.985435181E0,1.017744398E1
5.999339917E0,-7.932005310E-1,2.064207458E0,9.229956207E0,9.491164897E0
6.009361917E0,-9.354048157E-1,2.341281281E0,9.163644104E0,9.504154537E0
6.019383917E0,-1.093027039E0,2.568359070E0,9.629625092E0,1.002600897E1
6.029404917E0,-1.216220856E0,2.692001953E0,1.010758118E1,1.053039719E1
6.039426917E0,-1.337917786E0,2.655028839E0,1.020472916E1,1.062900274E1
6.049447917E0,-1.378633118E0,2.580034790E0,9.870623932E0,1.029497089E1
6.059469917E0,-1.400936737E0,2.579885101E0,9.220226440E0,9.676311616E0
6.069490917E0,-1.377884674E0,2.611918488E0,8.423433380E0,8.926080566E0
6.079512917E0,-1.330283661E0,2.778522034E0,7.717800751E0,8.309890958E0
6.089534917E0,-1.318757629E0,2.961142273E0,7.119494934E0,7.822703712E0
6.099555917E0,-1.381477203E0,3.117267609E0,6.830146637E0,7.633920336E0
6.109577917E0,-1.437011719E0,3.288361816E0,6.775061188E0,7.666797259E0
6.119598917E0,-1.418150940E0,3.428021393E0,6.761439514E0,7.712298429E0
6.129620917E0,-1.335073700E0,3.506009216E0,6.764433289E0,7.735119917E0
6.139641917E0,-1.150657196E0,3.380869446E0,6.685098267E0,7.579236705E0
6.149663917E0,-8.845106506E-1,3.137924652E0,6.693031769E0,7.444837438E0
6.159684917E0,-6.499484253E-1,2.887794800E0,6.753506012E0,7.373712445E0
6.169706917E0,-5.114863586E-1,2.740351410E0,6.802304535E0,7.351359815E0
6.179728917E0,-4.971162415E-1,2.757715302E0,6.915169830E0,7.461346529E0
6.189749917E0,-5.966592407E-1,2.876119080E0,7.178621979E0,7.756331396E0
6.199771917E0,-7.469467163E-1,3.044369202E0,7.486232300E0,8.116020409E0
6.209792917E0,-9.237290955E-1,3.181484070E0,7.654781799E0,8.340911265E0
6.219814917E0,-1.109193420E0,3.265609131E0,7.736511841E0,8.470426701E0
6.229835917E0,-1.212778015E0,3.383863220E0,7.875123596E0,8.656727584E0
6.239857917E0,-1.394200745E0,3.416645050E0,8.152945862E0,8.949177914E0
6.249879917E0,-1.590891724E0,3.389102325E0,8.432564392E0,9.226326098E0
6.259900917E0,-1.661395111E0,3.424129486E0,8.674760742E0,9.472928290E0
6.269922917E0,-1.673519897E0,3.396886139E0,8.824000397E0,9.602212625E0
6.279943917E0,-1.613494720E0,3.341201935E0,8.871002655E0,9.615699854E0
6.289965917E0,-1.496288452E0,3.400778046E0,8.768765259E0,9.523414021E0
6.299986917E0,-1.451531525E0,3.567381592E0,8.679999847E0,9.496080904E0
6.310008917E0,-1.442999268E0,3.712130585E0,8.570278015E0,9.450493406E0
6.320030917E0,-1.404229889E0,3.844904480E0,8.344547424E0,9.294440476E0
6.330051917E0,-1.378333740E0,4.016747131E0,8.217761078E0,9.250170731E0
6.340073917E0,-1.369801483E0,4.159550171E0,8.301736450E0,9.386002441E0
6.350094917E0,-1.337468719E0,4.217779083E0,8.487350464E0,9.571499405E0
6.360116917E0,-1.362466736E0,4.213138733E0,8.848549347E0,9.894628802E0
6.370137917E0,-1.398990784E0,4.243675232E0,9.250014496E0,1.027271740E1
6.380159917E0,-1.514849854E0,4.275708618E0,9.624236298E0,1.063966064E1
6.390181917E0,-1.693727875E0,4.208348694E0,1.007719437E1,1.105118813E1
6.400202917E0,-1.861977997E0,4.169579315E0,1.065559158E1,1.159284200E1
6.410224917E0,-1.988914032E0,4.211043091E0,1.120405106E1,1.213340113E1
6.420245917E0,-2.001038818E0,4.301604767E0,1.168350403E1,1.261000501E1
6.430267917E0,-1.955533447E0,4.309538269E0,1.207763443E1,1.297171864E1
6.440288917E0,-1.812431030E0,4.296515350E0,1.214828751E1,1.301252626E1
6.450310917E0,-1.623972931E0,4.299060059E0,1.200189194E1,1.285163863E1
6.460331917E0,-1.471589813E0,4.237238617E0,1.183992874E1,1.266110897E1
6.470353917E0,-1.378633118E0,4.068689117E0,1.179442337E1,1.255242140E1
6.480375917E0,-1.352886658E0,3.841761017E0,1.197165482E1,1.264555056E1
6.490396917E0,-1.350042572E0,3.507506104E0,1.226489502E1,1.282781602E1
6.500418917E0,-1.403032379E0,3.123554535E0,1.259226425E1,1.304952918E1
6.510439917E0,-1.433119812E0,2.842738495E0,1.306183777E1,1.344420323E1
6.520461917E0,-1.417402496E0,2.707120514E0,1.333831284E1,1.368386351E1
6.530482917E0,-1.384321289E0,2.647394714E0,1.329101120E1,1.362262908E1
6.540504917E0,-1.244512024E0,2.668650513E0,1.275587402E1,1.309132644E1
6.550526917E0,-9.782157898E-1,2.660717010E0,1.180714691E1,1.214269490E1
6.560547917E0,-6.891668701E-1,2.491119690E0,1.083656525E1,1.114054642E1
6.570569917E0,-4.781057739E-1,2.198328552E0,1.013482452E1,1.038151731E1
6.580590917E0,-3.600013733E-1,1.998643799E0,9.627679138E0,9.839531676E0
6.590612917E0,-2.903961182E-1,1.986369324E0,9.239835663E0,9.455398250E0
6.600633917E0,-3.879931641E-1,2.033221893E0,9.094487915E0,9.327070301E0
6.610655917E0,-5.417234802E-1,2.071542206E0,9.014703827E0,9.265507894E0
6.620677917E0,-6.842271423E-1,2.074386292E0,8.944050751E0,9.206915287E0
6.630698917E0,-7.656578064E-1,2.045795746E0,8.860973511E0,9.126245869E0
6.640720917E0,-7.978408813E-1,2.050585785E0,8.770262146E0,9.042065596E0
6.650741917E0,-7.779322815E-1,2.059866486E0,8.510851593E0,8.791064976E0
6.660763917E0,-6.453080750E-1,2.083367615E0,8.088879089E0,8.377756743E0
6.670785917E0,-5.610333252E-1,2.103126526E0,7.655979309E0,7.959391858E0
6.680806917E0,-5.855822754E-1,2.042801971E0,7.234904938E0,7.540543479E0
6.690828917E0,-5.544470215E-1,2.021695862E0,6.874454498E0,7.186987568E0
6.700849917E0,-5.670208740E-1,2.031126251E0,6.682254181E0,7.007104071E0
6.710871917E0,-6.444099426E-1,2.137554932E0,6.737639008E0,7.097900017E0
6.720892917E0,-6.807843018E-1,2.315534821E0,6.762187958E0,7.179996849E0
6.730914917E0,-7.054829407E-1,2.454146576E0,6.768325195E0,7.234000798E0
6.740936917E0,-7.173083496E-1,2.510130157E0,6.766379242E0,7.252528712E0
6.750957917E0,-7.087760925E-1,2.554138641E0,6.703809357E0,7.208817354E0
6.760979167E0,-7.153623962E-1,2.609822845E0,6.588399353E0,7.122494274E0
6.771000167E0,-7.708969116E-1,2.775079193E0,6.595584412E0,7.197018849E0
6.781022167E0,-8.906478882E-1,3.024011536E0,6.780599670E0,7.477595290E0
6.791043167E0,-9.312135315E-1,3.221001892E0,7.028035126E0,7.786866479E0
6.801065167E0,-8.863069153E-1,3.346740417E0,7.212301941E0,8.000219413E0
6.811087167E0,-8.749305725E-1,3.444487152E0,7.327861633E0,8.144172847E0
6.821108167E0,-8.647517395E-1,3.483705597E0,7.437284088E0,8.258159290E0
6.831130167E0,-7.997868347E-1,3.551065521E0,7.498506775E0,8.335306183E0
6.841151167E0,-7.854167175E-1,3.581003265E0,7.552245026E0,8.395050252E0
6.851173167E0,-7.765850830E-1,3.592978363E0,7.852071533E0,8.669925332E0
6.861194167E0,-7.562274170E-1,3.691922607E0,8.167914734E0,8.995387904E0
6.871216167E0,-7.403604126E-1,3.882925415E0,8.389304352E0,9.273924241E0
6.881238167E0,-7.667056274E-1,4.142785034E0,8.684939575E0,9.652910483E0
6.891259167E0,-8.011340332E-1,4.304897919E0,8.902886353E0,9.921458927E0
6.901281167E0,-9.204359436E-1,4.402794342E0,9.023086395E0,1.008205775E1
6.911302167E0,-1.034199371E0,4.417912903E0,9.190288696E0,1.024933798E1
6.921324167E0,-1.228195953E0,4.413422241E0,9.511820068E0,1.055753201E1
6.931346167E0,-1.433419189E0,4.490661621E0,9.987680511E0,1.104420637E1
6.941367167E0,-1.543290710E0,4.515210571E0,1.041474243E1,1.145581654E1
6.951389167E0,-1.524130554E0,4.372257843E0,1.061278061E1,1.157889135E1
6.961410167E0,-1.409468994E0,4.155658264E0,1.068807404E1,1.155383162E1
6.971432167E0,-1.303788757E0,3.957919464E0,1.065903442E1,1.144464969E1
6.981453167E0,-1.188378754E0,3.875141602E0,1.057565781E1,1.132578936E1
6.991475167E0,-1.038091278E0,3.851790161E0,1.054362442E1,1.127306244E1
7.001497167E0,-8.575666809E-1,3.862867126E0,1.046878006E1,1.119162718E1
7.011518167E0,-6.478527832E-1,3.999532928E0,1.033091675E1,1.109701842E1
7.021540167E0,-5.740562439E-1,4.153712311E0,1.026924500E1,1.109235139E1
7.031561167E0,-6.786886597E-1,4.293371887E0,1.028256729E1,1.116355009E1
7.041583167E0,-9.672885132E-1,4.342469788E0,1.053090088E1,1.143208486E1
7.051605167E0,-1.345102844E0,4.611460419E0,1.108504852E1,1.208110796E1
7.061626167E0,-1.967358856E0,4.751569061E0,1.200174225E1,1.305717146E1
7.071648167E0,-2.586920471E0,4.413871307E0,1.293624893E1,1.391118089E1
7.081669167E0,-2.905009003E0,3.813918915E0,1.380459320E1,1.461341330E1
7.091691167E0,-3.052751770E0,2.988235931E0,1.451501587E1,1.513058271E1
7.101712167E0,-2.877466278E0,2.264940033E0,1.465452576E1,1.510512796E1
7.111734167E0,-2.280058594E0,1.921853485E0,1.380309631E1,1.412153164E1
7.121756167E0,-1.572629700E0,1.686842194E0,1.222657471E1,1.244217545E1
7.131777167E0,-1.043330383E0,1.328936462E0,1.037971527E1,1.051632538E1
7.141799167E0,-6.750961304E-1,1.180295563E0,8.480764160E0,8.589075220E0
7.151820167E0,-4.025129700E-1,1.221310272E0,7.059619446E0,7.175781643E0
7.161842167E0,-4.110452271E-1,1.524878998E0,6.440207520E0,6.631024584E0
7.171864167E0,-6.869215393E-1,1.917811890E0,6.538553009E0,6.848542845E0
7.181885167E0,-1.097368011E0,2.283501434E0,6.989116058E0,7.434133348E0
7.191907167E0,-1.520238647E0,2.658920746E0,7.530240784E0,8.129299560E0
7.201928167E0,-1.929936676E0,2.938838654E0,8.000413055E0,8.738880779E0
7.211950167E0,-2.251168671E0,3.120411072E0,8.266260223E0,9.117882634E0
7.221971167E0,-2.399809570E0,3.351829834E0,8.383017426E0,9.341778758E0
7.231993167E0,-2.471809845E0,3.447031860E0,8.513545990E0,9.511694795E0
7.242015167E0,-2.434836731E0,3.288661194E0,8.705297241E0,9.619039578E0
7.252036167E0,-2.238445129E0,3.124153290E0,8.889114990E0,9.684386180E0
7.262058167E0,-2.016905823E0,2.938988342E0,8.940458221E0,9.624830117E0
7.272079167E0,-1.775906982E0,2.786006470E0,8.925339661E0,9.517214178E0
7.282101167E0,-1.552122345E0,2.775977325E0,8.683292999E0,9.247416461E0
7.292123167E0,-1.402882690E0,2.861150208E0,8.166417847E0,8.766107506E0
7.302144167E0,-1.245260468E0,2.961591339E0,7.427105255E0,8.092193112E0
7.312166167E0,-1.122066650E0,3.152294769E0,6.745123444E0,7.529454572E0
7.322187167E0,-9.627978516E-1,3.260819092E0,6.237079926E0,7.103596754E0
7.332209167E0,-8.102650452E-1,3.249143372E0,5.894143066E0,6.778966336E0
7.342231167E0,-7.414082336E-1,3.181783447E0,5.867049408E0,6.715333263E0
7.352252167E0,-7.800279236E-1,3.208128662E0,6.223308563E0,7.044863558E0
7.362274167E0,-8.869056702E-1,3.321293335E0,6.633455658E0,7.471300091E0
7.372295167E0,-9.894424438E-1,3.424428864E0,6.969057770E0,7.827737578E0
7.382317167E0,-1.114432526E0,3.581452332E0,7.301067352E0,8.208187689E0
7.392339167E0,-1.242715759E0,3.739373932E0,7.521409149E0,8.491104489E0
7.402360167E0,-1.340612183E0,3.865262146E0,7.670798492E0,8.693597759E0
7.412382167E0,-1.452878723E0,3.979774017E0,7.818840637E0,8.892903166E0
7.422403167E0,-1.654359741E0,4.079466705E0,8.073161774E0,9.195373607E0
7.432425167E0,-1.761985931E0,4.190386047E0,8.346942444E0,9.504492507E0
7.442446167E0,-1.788181458E0,4.184548187E0,8.690328369E0,9.809681117E0
7.452468167E0,-1.747615814E0,3.993246002E0,8.939410400E0,9.945513208E0
7.462490167E0,-1.571132813E0,3.958817596E0,9.025331726E0,9.979845081E0
7.472511167E0,-1.429527283E0,3.952830048E0,9.135053558E0,1.005572559E1
7.482533167E0,-1.339564362E0,3.905229034E0,9.285490723E0,1.016196755E1
7.492554167E0,-1.320254517E0,3.890559540E0,9.510622559E0,1.036009010E1
7.502576167E0,-1.319805450E0,3.889960785E0,9.678573303E0,1.051420290E1
7.512598167E0,-1.301094360E0,3.964056702E0,9.804012451E0,1.065482296E1
7.522619167E0,-1.246158600E0,4.086202698E0,9.816885681E0,1.070612947E1
7.532641167E0,-1.222358093E0,4.148473206E0,9.668244781E0,1.059145629E1
7.542662167E0,-1.285676422E0,4.140839081E0,9.574988708E0,1.051094291E1
7.552684167E0,-1.366957397E0,4.234095154E0,9.627080383E0,1.060550852E1
7.562706167E0,-1.517693939E0,4.337979126E0,9.715696106E0,1.074784670E1
7.572727167E0,-1.648072815E0,4.432432709E0,9.925110626E0,1.099410863E1
7.582749167E0,-1.694476318E0,4.485272827E0,1.016595978E1,1.123991372E1
7.592770167E0,-1.648072815E0,4.572241974E0,1.041384430E1,1.149215792E1
7.602792167E0,-1.560205536E0,4.612508240E0,1.049302963E1,1.156776316E1
7.612814167E0,-1.503922577E0,4.578528900E0,1.055155792E1,1.160000365E1
7.622835167E0,-1.480870514E0,4.557722168E0,1.069136719E1,1.171627676E1
7.632857167E0,-1.504671021E0,4.508624268E0,1.090871521E1,1.189923507E1
7.642878167E0,-1.602717133E0,4.406686249E0,1.134161499E1,1.227272653E1
7.652900167E0,-1.669777679E0,4.212090912E0,1.176403656E1,1.260644373E1
7.662922167E0,-1.673819275E0,3.996389465E0,1.193438232E1,1.269654603E1
7.672943167E0,-1.712438965E0,3.714824982E0,1.218136871E1,1.284982940E1
7.682965167E0,-1.798959045E0,3.333118744E0,1.238479568E1,1.295102692E1
7.692986167E0,-1.824855194E0,3.061134338E0,1.239796829E1,1.290000999E1
7.703008167E0,-1.858684845E0,2.913990326E0,1.226100311E1,1.273884792E1
7.713030167E0,-1.893262939E0,2.839145966E0,1.195548843E1,1.243297624E1
7.723051167E0,-1.704206085E0,2.888243866E0,1.152992340E1,1.200772271E1
7.733073167E0,-1.346899109E0,2.815944214E0,1.085722229E1,1.129703301E1
7.743094167E0,-9.831555176E-1,2.673590240E0,9.981842651E0,1.038035945E1
7.753116167E0,-7.095245361E-1,2.563269653E0,9.149872742E0,9.528585812E0
7.763142833E0,-6.225553894E-1,2.551893311E0,8.604257355E0,8.996275858E0
7.773163833E0,-6.583309937E-1,2.660866699E0,8.219557343E0,8.664567744E0
7.783185833E0,-7.934999084E-1,2.890938263E0,8.031697998E0,8.572942253E0
7.793206833E0,-9.577084351E-1,3.053949280E0,8.158933411E0,8.764245892E0
7.803228833E0,-1.101409607E0,3.097957764E0,8.474926300E0,9.090369696E0
7.813250833E0,-1.142274628E0,2.950963440E0,8.750652924E0,9.305208388E0
7.823271833E0,-1.047072601E0,2.741099854E0,8.815917206E0,9.291414619E0
7.833293833E0,-9.098080444E-1,2.582729187E0,8.704848175E0,9.125383416E0
7.843314833E0,-7.914042664E-1,2.480791168E0,8.481362915E0,8.872100227E0
7.853336833E0,-6.514453125E-1,2.403851166E0,8.081394653E0,8.456466222E0
7.863358833E0,-5.095404053E-1,2.381248169E0,7.635771332E0,8.014672676E0
7.873379833E0,-4.321513367E-1,2.293380890E0,7.188950500E0,7.558264350E0
7.883401833E0,-3.980223083E-1,2.247725830E0,6.891968079E0,7.260159582E0
7.893422833E0,-4.549040222E-1,2.282752991E0,6.727011108E0,7.118326864E0
7.903444833E0,-5.242098999E-1,2.370620270E0,6.749015350E0,7.172436454E0
7.913466833E0,-5.773493958E-1,2.528541870E0,6.813531189E0,7.290477596E0
7.923487833E0,-6.539900208E-1,2.625091095E0,6.813531189E0,7.330962656E0
7.933509833E0,-6.545887756E-1,2.700234833E0,6.870263214E0,7.410821226E0
7.943530833E0,-5.363346863E-1,2.781066742E0,6.789730682E0,7.356794809E0
7.953552833E0,-4.577481079E-1,2.861898651E0,6.628066864E0,7.234035359E0
7.963574833E0,-3.938310242E-1,2.899620209E0,6.583010559E0,7.204091077E0
7.973595833E0,-3.345542908E-1,3.020419006E0,6.573430481E0,7.241881374E0
7.983617833E0,-3.830534363E-1,3.154240723E0,6.558012543E0,7.287214350E0
7.993639833E0,-5.255570984E-1,3.334915009E0,6.675817566E0,7.480936342E0
8.003660833E0,-6.502478027E-1,3.605103149E0,6.895261230E0,7.807958655E0
8.013682833E0,-7.384144592E-1,3.765120392E0,7.203919373E0,8.161975362E0
8.023703833E0,-7.867639160E-1,3.831133118E0,7.639513550E0,8.582467344E0
8.033725833E0,-7.707472229E-1,3.870950317E0,8.017627258E0,8.936478864E0
8.043747833E0,-7.566764832E-1,3.875291290E0,8.377478943E0,9.261349541E0
8.053768833E0,-7.283853149E-1,3.907324677E0,8.639284515E0,9.509730187E0
8.063790833E0,-7.189549255E-1,3.996688843E0,8.746311951E0,9.643048824E0
8.073811833E0,-7.412585449E-1,4.089495850E0,8.814719696E0,9.745395008E0
8.083833833E0,-8.026309204E-1,4.119732971E0,8.996890869E0,9.927762158E0
8.093855833E0,-8.936416626E-1,4.138743439E0,9.239087219E0,1.016309625E1
8.103876833E0,-9.879455566E-1,4.186793518E0,9.579479370E0,1.050103335E1
8.113898833E0,-1.102158051E0,4.209845581E0,1.000040405E1,1.090621994E1
8.123919833E0,-1.240021362E0,4.252057800E0,1.045231430E1,1.135202725E1
8.133941833E0,-1.351539459E0,4.230951691E0,1.078731766E1,1.166592617E1
8.143963833E0,-1.376537476E0,4.174519043E0,1.100571350E1,1.185104191E1
8.153984833E0,-1.444047089E0,3.991150360E0,1.117231705E1,1.195136902E1
8.164006833E0,-1.440304871E0,3.787124634E0,1.124701172E1,1.195458338E1
8.174028833E0,-1.329086151E0,3.668720856E0,1.117441269E1,1.183610923E1
8.184049833E0,-1.255888367E0,3.589385834E0,1.091395432E1,1.155748005E1
8.194071833E0,-1.256337433E0,3.622766418E0,1.059317139E1,1.126579337E1
8.204092833E0,-1.323098602E0,3.709286499E0,1.019305344E1,1.092738462E1
8.214114833E0,-1.408271484E0,3.877985687E0,9.834249573E0,1.066463624E1
8.224136833E0,-1.608554993E0,4.058659973E0,9.724078674E0,1.065916864E1
8.234157833E0,-1.909429321E0,4.231999512E0,9.952503662E0,1.098217052E1
8.244179833E0,-2.192490692E0,4.414320374E0,1.044692551E1,1.155125501E1
8.254200833E0,-2.449955292E0,4.494703217E0,1.097233292E1,1.210771356E1
8.264222833E0,-2.720742188E0,4.386627960E0,1.150118317E1,1.260643316E1
8.274244833E0,-2.980302429E0,4.146078186E0,1.188693100E1,1.293720586E1
8.284265833E0,-3.073857880E0,3.633094940E0,1.219843323E1,1.309388232E1
8.294287833E0,-2.963088226E0,3.026556244E0,1.246667542E1,1.316654588E1
8.304309833E0,-2.692750397E0,2.651885376E0,1.239228012E1,1.295577120E1
8.314330833E0,-2.320025482E0,2.452050934E0,1.206880280E1,1.253200195E1
8.324352833E0,-1.898951111E0,2.320923615E0,1.142559036E1,1.181257029E1
8.334373833E0,-1.611548767E0,2.230960693E0,1.057685532E1,1.092905044E1
8.344395833E0,-1.448388062E0,2.146087189E0,9.706265717E0,1.004565142E1
8.354417833E0,-1.419797516E0,2.189796295E0,9.069340210E0,9.437370643E0
8.364438833E0,-1.516646118E0,2.269430695E0,8.754993896E0,9.170629709E0
8.374460833E0,-1.680405579E0,2.335443420E0,8.712631989E0,9.175402718E0
8.384481833E0,-1.861229553E0,2.364183655E0,8.956025848E0,9.447959505E0
8.394503833E0,-2.000440063E0,2.365830231E0,9.309889984E0,9.811878752E0
8.404525833E0,-2.142344971E0,2.346819763E0,9.435029755E0,9.955751677E0
8.414546833E0,-2.237097931E0,2.391427002E0,9.358987885E0,9.915350951E0
8.424568833E0,-2.210752716E0,2.503992920E0,9.076525269E0,9.671645106E0
8.434590833E0,-2.156266022E0,2.606978760E0,8.568631439E0,9.212343141E0
8.444611833E0,-2.061213684E0,2.761906586E0,8.016729126E0,8.726091663E0
8.454633833E0,-1.933828583E0,2.900518341E0,7.482939148E0,8.255124343E0
8.464654833E0,-1.798060913E0,2.969375153E0,7.119195557E0,7.920426581E0
8.474676833E0,-1.666035461E0,3.011138306E0,6.920408936E0,7.728821895E0
8.484698833E0,-1.497186584E0,3.029100952E0,6.757397919E0,7.555094101E0
8.494719833E0,-1.317260742E0,2.954106903E0,6.736591187E0,7.472856500E0
8.504741833E0,-1.170116730E0,2.852617950E0,6.866371307E0,7.526862378E0
8.514763833E0,-1.036145325E0,2.811902618E0,7.001689911E0,7.616039330E0
8.524784833E0,-9.163943481E-1,2.841990051E0,7.184010773E0,7.779890541E0
8.534806833E0,-8.370593262E-1,2.903811493E0,7.253316650E0,7.857696350E0
8.544827833E0,-7.791297913E-1,2.933150482E0,7.309599609E0,7.914585361E0
8.554849833E0,-7.246430969E-1,2.948269043E0,7.494315491E0,8.085923735E0
8.564871833E0,-7.792794800E-1,2.963537292E0,7.727231140E0,8.312636819E0
8.574892833E0,-9.346563721E-1,3.023412781E0,8.022716675E0,8.624302303E0
8.584914833E0,-1.118923187E0,3.202889557E0,8.314909058E0,8.980434469E0
8.594936833E0,-1.297352142E0,3.331172791E0,8.528065796E0,9.247039578E0
8.604957833E0,-1.482666779E0,3.427422638E0,8.628357239E0,9.401812344E0
8.614979833E0,-1.600022736E0,3.463946686E0,8.714278564E0,9.513025297E0
8.625000833E0,-1.641636200E0,3.468587036E0,8.790919189E0,9.591992788E0
8.635022833E0,-1.636696472E0,3.456162872E0,8.884324951E0,9.672386830E0
8.645044833E0,-1.628164215E0,3.426374817E0,9.047485657E0,9.810604457E0
8.655065833E0,-1.552122345E0,3.473526764E0,9.108558655E0,9.871185984E0
8.665087833E0,-1.466650085E0,3.581152954E0,8.927584991E0,9.730236006E0
8.675109833E0,-1.341061249E0,3.612138519E0,8.583151245E0,9.408319470E0
8.685130833E0,-1.197958832E0,3.635190582E0,8.323141937E0,9.161026560E0
8.695152833E0,-1.133892059E0,3.694317627E0,8.253087616E0,9.113020856E0
8.705173833E0,-1.125509491E0,3.680845642E0,8.459059296E0,9.293604275E0
8.715195833E0,-1.087488556E0,3.732188873E0,8.773854675E0,9.596478052E0
8.725217833E0,-1.129700775E0,3.810775452E0,9.012757874E0,9.850281106E0
8.735238833E0,-1.241069183E0,3.887266388E0,9.129215698E0,9.999683593E0
8.745260833E0,-1.348545685E0,3.957021332E0,9.193881226E0,1.009970521E1
8.755282833E0,-1.481020203E0,3.942351837E0,9.232351227E0,1.014750551E1
8.765299083E0,-1.638193359E0,3.887715454E0,9.424252167E0,1.032543161E1
8.775321083E0,-1.744322662E0,4.008663940E0,9.787397003E0,1.071938376E1
8.785342083E0,-1.797761536E0,4.178860016E0,1.012838791E1,1.110311034E1
8.795364083E0,-1.816173248E0,4.349954224E0,1.044797333E1,1.146214350E1
8.805386083E0,-1.748663635E0,4.464915161E0,1.070304291E1,1.172810383E1
8.815407083E0,-1.638343048E0,4.417164459E0,1.087518494E1,1.185179975E1
8.825429083E0,-1.519340515E0,4.267775116E0,1.109148514E1,1.198095750E1
8.835451083E0,-1.394200745E0,4.002975769E0,1.137649246E1,1.214051858E1
8.845472083E0,-1.344055023E0,3.802841949E0,1.167631897E1,1.235332002E1
8.855494083E0,-1.323397980E0,3.628753967E0,1.191986252E1,1.253005826E1
8.865516083E0,-1.300196228E0,3.388353882E0,1.214738937E1,1.267795413E1
8.875537083E0,-1.295106812E0,3.098855896E0,1.227237946E1,1.272365934E1
8.885559083E0,-1.350940704E0,2.898273010E0,1.226908630E1,1.267893946E1
8.895580083E0,-1.467099152E0,2.775827637E0,1.215188004E1,1.255092775E1
8.905602083E0,-1.604214020E0,2.706671448E0,1.200413727E1,1.240962870E1
8.915624083E0,-1.629062347E0,2.735112305E0,1.180984131E1,1.223139547E1
8.925645083E0,-1.563049622E0,2.762954407E0,1.148337021E1,1.191406029E1
8.935667083E0,-1.363813934E0,2.689457245E0,1.089644073E1,1.130599794E1
8.945689083E0,-1.064735870E0,2.574196930E0,9.983339539E0,1.036471035E1
8.955710083E0,-8.072712708E-1,2.485281830E0,8.928333435E0,9.302873245E0
8.965732083E0,-6.348298645E-1,2.511327667E0,8.107141113E0,8.510905512E0
8.975754083E0,-6.134243774E-1,2.639161835E0,7.648045807E0,8.113819651E0
8.985775083E0,-7.382647705E-1,2.832260284E0,7.565567322E0,8.111999882E0
8.995797083E0,-8.786727905E-1,3.072510681E0,7.650291138E0,8.290919264E0
9.005818083E0,-1.013991394E0,3.156336365E0,7.934250641E0,8.599009886E0
9.015840083E0,-1.181942139E0,3.124003601E0,8.383466492E0,9.024350178E0
9.025862083E0,-1.245110779E0,3.083288269E0,8.788374481E0,9.396408539E0
9.035883083E0,-1.179696808E0,3.033741302E0,8.973389740E0,9.545522211E0
9.045905083E0,-1.058598633E0,2.867287445E0,8.921597443E0,9.430634617E0
9.055927083E0,-9.226812744E-1,2.654280396E0,8.619974670E0,9.066449607E0
9.065948083E0,-8.223898315E-1,2.547252960E0,8.190966797E0,8.617236201E0
9.075970083E0,-7.426057434E-1,2.585722961E0,7.930209045E0,8.374105446E0
9.085992083E0,-7.625143433E-1,2.644550629E0,7.870632935E0,8.337981707E0
9.096013083E0,-8.557704163E-1,2.684517517E0,7.917784882E0,8.404183169E0
9.106035083E0,-8.881031799E-1,2.751578064E0,8.005652161E0,8.511778640E0
9.116057083E0,-9.382489014E-1,2.789299622E0,7.986641693E0,8.511577346E0
9.126078083E0,-9.216334534E-1,2.777474213E0,7.844287720E0,8.372372487E0
9.136100083E0,-8.068222046E-1,2.759062500E0,7.614964600E0,8.139476261E0
9.146122083E0,-7.125183105E-1,2.725681915E0,7.378007355E0,7.897595632E0
9.156143083E0,-6.617738342E-1,2.747985535E0,7.207212524E0,7.741658832E0
9.166165083E0,-5.956114197E-1,2.821183319E0,7.114704895E0,7.676773673E0
9.176186083E0,-5.987548828E-1,2.919977875E0,7.070546722E0,7.673161614E0
9.186208083E0,-6.512956238E-1,3.069217529E0,7.109465790E0,7.771022201E0
9.196230083E0,-6.599775696E-1,3.256777496E0,7.135960693E0,7.871728214E0
9.206251083E0,-7.105723572E-1,3.429368591E0,7.183412018E0,7.991676309E0
9.216273083E0,-7.424560547E-1,3.520379333E0,7.378007355E0,8.208489762E0
9.226295083E0,-7.059320068E-1,3.537892914E0,7.621101837E0,8.431857416E0
9.236316083E0,-6.541397095E-1,3.516337738E0,7.903564453E0,8.675186506E0
9.246338083E0,-6.348298645E-1,3.519032135E0,8.240962830E0,8.983321462E0
9.256360083E0,-5.912704468E-1,3.607797546E0,8.566535797E0,9.314039910E0
9.266381083E0,-5.207670593E-1,3.673810272E0,8.708141327E0,9.465717385E0
9.276403083E0,-4.239184570E-1,3.727997589E0,8.700207825E0,9.474771189E0
9.286425083E0,-4.013154602E-1,3.817361755E0,8.747958527E0,9.553014354E0
9.296446083E0,-4.761598206E-1,3.902085571E0,8.813222809E0,9.650175970E0
9.306468083E0,-6.134243774E-1,3.970493317E0,8.970845032E0,9.829403198E0
9.316490083E0,-7.466473389E-1,4.023034058E0,9.326206055E0,1.018432151E1
9.326511083E0,-9.434880066E-1,3.972139893E0,9.725276184E0,1.054746708E1
9.336533083E0,-1.084644470E0,3.943100281E0,1.001971390E1,1.082216060E1
9.346554083E0,-1.127006378E0,3.954476624E0,1.021730301E1,1.101368737E1
9.356576083E0,-1.184636536E0,3.837569733E0,1.035217255E1,1.110395342E1
9.366598083E0,-1.237027588E0,3.713627472E0,1.050605255E1,1.121153007E1
9.376619083E0,-1.158890076E0,3.682192841E0,1.063553329E1,1.131442172E1
9.386641083E0,-1.005908203E0,3.628005524E0,1.068777466E1,1.133149604E1
9.396663083E0,-8.746311951E-1,3.655248871E0,1.066472260E1,1.130761390E1
9.406684083E0,-8.496331787E-1,3.864513702E0,1.051518356E1,1.123500904E1
9.416706083E0,-1.005608826E0,4.289929047E0,1.034723282E1,1.124633128E1
9.426728083E0,-1.369951172E0,4.640949097E0,1.047836014E1,1.154171590E1
9.436749083E0,-1.753603363E0,4.893324280E0,1.104448288E1,1.220656993E1
9.446771083E0,-2.095193024E0,4.930896149E0,1.201656143E1,1.315679746E1
9.456793083E0,-2.323618011E0,4.553381195E0,1.321422089E1,1.416856078E1
9.466814083E0,-2.363734589E0,3.852837982E0,1.444795532E1,1.513852749E1
9.476836083E0,-2.230062561E0,2.987337799E0,1.543096115E1,1.587488356E1
9.486858083E0,-2.008672943E0,2.189496918E0,1.576027634E1,1.603792299E1
9.496879083E0,-1.630259857E0,1.745520172E0,1.503608231E1,1.522459717E1
9.506901083E0,-1.251248016E0,1.693877563E0,1.348785187E1,1.365126334E1
9.516923083E0,-9.873468018E-1,1.687141571E0,1.156779465E1,1.173180180E1
9.526944083E0,-8.309220886E-1,1.785487061E0,9.889035645E0,1.008322476E1
9.536966083E0,-7.262896729E-1,1.913470917E0,8.633895721E0,8.873163076E0
9.546988083E0,-6.243516541E-1,2.072290649E0,7.805368652E0,8.099875513E0
9.557009083E0,-6.376739502E-1,2.128124542E0,7.647896118E0,7.964035231E0
9.567031083E0,-6.953041077E-1,2.204765167E0,7.807015228E0,8.142108082E0
9.577053083E0,-8.577163696E-1,2.278112640E0,8.106841736E0,8.464417139E0
9.587074083E0,-1.060245209E0,2.324965210E0,8.362959137E0,8.744636565E0
9.597096083E0,-1.256786499E0,2.477797394E0,8.420140228E0,8.866665308E0
9.607118083E0,-1.480122070E0,2.669997711E0,8.283624115E0,8.828254505E0
9.617139083E0,-1.692230988E0,2.927162933E0,8.023914185E0,8.707188260E0
9.627161083E0,-1.796713715E0,3.182531891E0,7.736511841E0,8.556302056E0
9.637182083E0,-1.836530914E0,3.272794189E0,7.439828796E0,8.332771455E0
9.647204083E0,-1.758992157E0,3.283871155E0,7.139553223E0,8.053017036E0
9.657226083E0,-1.605411530E0,3.246748352E0,6.946903839E0,7.834423654E0
9.667247083E0,-1.527573395E0,3.160976715E0,6.779701538E0,7.634763075E0
9.677269083E0,-1.344504089E0,3.069816284E0,6.705006866E0,7.495904238E0
9.687291083E0,-1.116079102E0,2.972668304E0,6.652466125E0,7.371410649E0
9.697312083E0,-9.822573853E-1,2.888992310E0,6.542444916E0,7.219050603E0
9.707334083E0,-9.240284729E-1,2.883902893E0,6.623127136E0,7.282618868E0
9.717356083E0,-8.288264465E-1,2.957400055E0,6.653513947E0,7.328193243E0
9.727377083E0,-8.021818542E-1,3.007994843E0,6.579567719E0,7.278890030E0
9.737399083E0,-8.372090149E-1,3.026855621E0,6.712640991E0,7.410959652E0
9.747421083E0,-9.153465271E-1,3.113076324E0,6.987319794E0,7.704008136E0
9.757442083E0,-9.952803040E-1,3.347039795E0,7.208110657E0,8.009376849E0
9.767464083E0,-1.076860657E0,3.510350189E0,7.524552612E0,8.372638732E0
9.777486083E0,-1.153650970E0,3.564088440E0,7.886200562E0,8.730738587E0
9.787507083E0,-1.174008636E0,3.572171631E0,8.184829559E0,9.007227173E0
9.797529083E0,-1.235830078E0,3.518433380E0,8.427325287E0,9.215555378E0
9.807551083E0,-1.270557861E0,3.467988281E0,8.657696228E0,9.412596027E0
9.817572083E0,-1.254990234E0,3.428769836E0,8.820707245E0,9.546535465E0
9.827594083E0,-1.270408173E0,3.363355865E0,8.961264954E0,9.655587459E0
9.837616083E0,-1.179397430E0,3.290307770E0,9.168434143E0,9.812099070E0
9.847637083E0,-1.034349060E0,3.306773529E0,9.254056091E0,9.881405937E0
9.857659083E0,-9.551637268E-1,3.343746643E0,9.252708893E0,9.884614368E0
9.867681083E0,-9.147477722E-1,3.444038086E0,9.292825470E0,9.952626138E0
9.877702083E0,-8.526269531E-1,3.591780853E0,9.281598816E0,9.988790667E0
9.887724083E0,-8.583151245E-1,3.717519379E0,9.206604767E0,9.965853025E0
9.897746083E0,-8.954379272E-1,3.870800629E0,9.238189087E0,1.005629376E1
9.907767083E0,-9.201365662E-1,4.028722229E0,9.263336792E0,1.014330630E1
9.917789083E0,-9.672885132E-1,4.184548187E0,9.341474304E0,1.028149954E1
9.927811083E0,-1.042432251E0,4.204606476E0,9.553882599E0,1.049009310E1
9.937832083E0,-1.166673889E0,4.233646088E0,9.765841827E0,1.070778006E1
9.947854083E0,-1.218915253E0,4.337679749E0,1.002809647E1,1.099381366E1
9.957876083E0,-1.272054749E0,4.377946014E0,1.034992722E1,1.130953261E1
9.967897083E0,-1.250798950E0,4.415817261E0,1.057880127E1,1.153147763E1
9.977919083E0,-1.113235016E0,4.516557770E0,1.065454376E1,1.162574252E1
9.987941083E0,-8.882528687E-1,4.654421082E0,1.049781967E1,1.151767540E1
9.997962083E0,-6.339317322E-1,4.749174042E0,1.022134460E1,1.128859642E1
1.000798408E1,-4.328997803E-1,4.688550110E0,9.985734558E0,1.104014488E1
1.001800608E1,-3.631448364E-1,4.483177185E0,9.738149414E0,1.072670993E1
1.002802708E1,-4.258644104E-1,4.254901886E0,9.778265991E0,1.067239600E1
1.003804908E1,-5.909710693E-1,4.047583008E0,1.046503784E1,1.123606657E1
1.004807108E1,-7.000941467E-1,3.752247162E0,1.143262573E1,1.205298393E1
1.005809308E1,-7.517367554E-1,3.300935669E0,1.245380219E1,1.290575350E1
1.006811408E1,-7.243437195E-1,2.820135498E0,1.318862411E1,1.350620761E1
1.007813608E1,-7.232958984E-1,2.408940582E0,1.357287506E1,1.380395194E1
1.008815808E1,-8.497828674E-1,2.116149445E0,1.341510315E1,1.360754246E1
1.009817908E1,-8.837622070E-1,2.143841858E0,1.269764511E1,1.290764444E1
1.010820108E1,-9.271719360E-1,2.163002014E0,1.187390808E1,1.210487169E1
1.011822308E1,-8.240364075E-1,2.228715363E0,1.086994583E1,1.112663159E1
1.012824408E1,-5.333409119E-1,2.298919373E0,9.802814941E0,1.008288964E1
1.013826608E1,-2.216889954E-1,2.400258636E0,8.842861176E0,9.165510422E0
1.014828808E1,-2.544708252E-3,2.428849182E0,8.001011810E0,8.361549187E0
1.015830908E1,1.137634277E-1,2.488874359E0,7.357949066E0,7.768323639E0
1.016833108E1,5.089416504E-2,2.707270203E0,6.969806213E0,7.477305719E0
1.017835308E1,-1.480421448E-1,3.015479279E0,6.991211700E0,7.615252642E0
1.018837408E1,-3.845503235E-1,3.331023102E0,7.294181671E0,8.027993529E0
1.019839608E1,-5.929170227E-1,3.462150421E0,7.650141449E0,8.417998594E0
1.020841808E1,-7.426057434E-1,3.440744934E0,8.064030762E0,8.798794299E0
1.021843908E1,-8.110134888E-1,3.216810608E0,8.459059296E0,9.086324754E0
1.022846108E1,-7.723937988E-1,2.995870056E0,8.741072845E0,9.272442184E0
1.023848308E1,-6.878196716E-1,2.852917328E0,8.887468414E0,9.359451266E0
1.024850408E1,-6.001020813E-1,2.733615417E0,8.935668182E0,9.363703414E0
1.025852608E1,-5.023553467E-1,2.684218140E0,8.816366272E0,9.229610076E0
1.026854808E1,-4.430786133E-1,2.632725220E0,8.500822449E0,8.910193210E0
1.027856908E1,-4.090992737E-1,2.611918488E0,8.111781464E0,8.531733641E0
1.028859108E1,-3.941304016E-1,2.632425842E0,7.819738770E0,8.260346180E0
1.029861308E1,-4.108955383E-1,2.702929230E0,7.717651062E0,8.187600349E0
1.030863408E1,-4.878355408E-1,2.812351685E0,7.754175110E0,8.262840743E0
1.031865608E1,-5.348377991E-1,2.946472778E0,7.763605499E0,8.321137161E0
1.032867808E1,-5.995033264E-1,3.054548035E0,7.675887909E0,8.283050351E0
1.033870008E1,-6.598278809E-1,3.076252899E0,7.623347168E0,8.247067768E0
1.034872108E1,-6.357279968E-1,3.088527374E0,7.632777557E0,8.258477140E0
1.035874308E1,-5.945635986E-1,3.167413330E0,7.591762848E0,8.247476961E0
1.036876508E1,-5.977070618E-1,3.240461426E0,7.657476196E0,8.336353260E0
1.037878608E1,-5.565426636E-1,3.284020844E0,7.780520325E0,8.463511633E0
1.038880808E1,-4.698728943E-1,3.296145630E0,7.941286011E0,8.611003429E0
1.039883008E1,-4.150868225E-1,3.209176483E0,8.109087067E0,8.730887917E0
1.040885108E1,-3.827540588E-1,3.186872864E0,8.291557617E0,8.891152177E0
1.041887308E1,-3.403921509E-1,3.270997925E0,8.519234161E0,9.131957344E0
1.042889508E1,-3.189866638E-1,3.320694580E0,8.793463898E0,9.404986566E0
1.043891608E1,-2.609074402E-1,3.412603455E0,8.882229309E0,9.518819913E0
1.044893808E1,-2.047741699E-1,3.564687195E0,8.840615845E0,9.534433165E0
1.045896008E1,-1.889071655E-1,3.729644165E0,8.782237244E0,9.543250102E0
1.046898108E1,-2.350112915E-1,3.889811096E0,8.683292999E0,9.517638257E0
1.047900308E1,-2.552192688E-1,4.028572540E0,8.634644165E0,9.531611272E0
1.048902508E1,-2.258802795E-1,4.085005188E0,8.757388916E0,9.665927266E0
1.049904608E1,-2.471360779E-1,4.067790985E0,9.042695618E0,9.918585775E0
1.050906808E1,-2.621049500E-1,4.102069702E0,9.413773956E0,1.027204045E1
1.051909008E1,-2.083666992E-1,4.187392273E0,9.643246765E0,1.051522130E1
1.052911208E1,-2.550695801E-1,4.108955383E0,9.821076965E0,1.064904351E1
1.053913308E1,-3.700305176E-1,3.967050476E0,1.000474503E1,1.076890594E1
1.054915508E1,-5.313949585E-1,3.888912964E0,1.019694534E1,1.092628569E1
1.055917708E1,-6.727011108E-1,3.841761017E0,1.040591080E1,1.111281396E1
1.056919808E1,-6.962022400E-1,3.777843933E0,1.047401917E1,1.115624846E1
1.057922008E1,-6.164181519E-1,3.884721680E0,1.039079224E1,1.111033740E1
1.058924208E1,-5.474116516E-1,4.213138733E0,1.011641281E1,1.097232909E1
1.059926308E1,-6.206094360E-1,4.506678314E0,9.759554901E0,1.076773966E1
1.060928508E1,-8.170010376E-1,4.733606415E0,9.585317230E0,1.072160561E1
1.061930708E1,-1.165326691E0,4.963977356E0,9.572593689E0,1.084590279E1
1.062932808E1,-1.593137054E0,5.034331055E0,9.946216736E0,1.126098584E1
1.063935008E1,-1.916165314E0,4.845124512E0,1.095571747E1,1.213155663E1
1.064937208E1,-2.102378082E0,4.291126556E0,1.233839218E1,1.323139004E1
1.065939308E1,-2.102827148E0,3.469634857E0,1.356284592E1,1.415666053E1
1.066941508E1,-1.846110992E0,2.813100128E0,1.440649155E1,1.479421025E1
1.067943708E1,-1.578018494E0,2.343376923E0,1.453672073E1,1.480870715E1
1.068945908E1,-1.328188019E0,2.081271973E0,1.380130005E1,1.402040154E1
1.069948008E1,-1.126856689E0,2.069296875E0,1.232327362E1,1.254650821E1
1.070950208E1,-1.025218048E0,2.219434662E0,1.067984116E1,1.095609280E1
1.071952408E1,-1.040635986E0,2.348166962E0,9.316326599E0,9.663889105E0
1.072954508E1,-1.143023071E0,2.545456696E0,8.503816223E0,8.949901781E0
1.073956708E1,-1.303788757E0,2.765499115E0,8.223149872E0,8.773143353E0
1.074958908E1,-1.466350708E0,2.915786591E0,8.413404236E0,9.024265437E0
1.075961071E1,-1.673519897E0,3.026256866E0,8.929081879E0,9.575353919E0
1.076963271E1,-1.845212860E0,3.106190643E0,9.290280762E0,9.968076416E0
1.077965471E1,-1.926793213E0,3.155138855E0,9.248816986E0,9.960323736E0
1.078967571E1,-1.956730957E0,3.193908234E0,8.948391724E0,9.700698958E0
1.079969771E1,-1.918560333E0,3.167563019E0,8.544830933E0,9.312811868E0
1.080971971E1,-1.814376984E0,3.084934845E0,8.156388702E0,8.907045722E0
1.081974171E1,-1.650318146E0,2.988834686E0,7.913743286E0,8.618817527E0
1.082976271E1,-1.491199036E0,2.860102386E0,7.690856781E0,8.339852412E0
1.083978471E1,-1.328337708E0,2.814147949E0,7.615563354E0,8.226828973E0
1.084980671E1,-1.193168793E0,2.765050049E0,7.467072144E0,8.051479363E0
1.085982771E1,-1.009800110E0,2.695145416E0,7.197632446E0,7.751736445E0
1.086984971E1,-8.059240723E-1,2.720442810E0,6.893614655E0,7.454679450E0
1.087987171E1,-6.670129395E-1,2.721640320E0,6.559060364E0,7.132566519E0
1.088989271E1,-5.557942200E-1,2.729124756E0,6.306535492E0,6.894158329E0
1.089991471E1,-4.463717651E-1,2.741698608E0,6.155499573E0,6.753246183E0
1.090993671E1,-3.743714905E-1,2.770139465E0,6.112538910E0,6.721380706E0
1.091995771E1,-3.715274048E-1,2.906954956E0,6.146967316E0,6.809818420E0
1.092997971E1,-4.516108704E-1,3.117267609E0,6.225553894E0,6.977021643E0
1.094000171E1,-5.499563599E-1,3.326233063E0,6.452032928E0,7.279766981E0
1.095002371E1,-6.656657410E-1,3.518283691E0,6.828799438E0,7.710637638E0
1.096004471E1,-7.435038757E-1,3.715274048E0,7.111262054E0,8.057673813E0
1.097006671E1,-8.138575745E-1,3.845054169E0,7.319029999E0,8.307527059E0
1.098008871E1,-9.246272278E-1,3.917952576E0,7.658224640E0,8.651802849E0
1.099010971E1,-1.009051666E0,3.957021332E0,8.062533875E0,9.037735090E0
1.100013171E1,-1.015488281E0,3.930077362E0,8.330776062E0,9.267068270E0
1.101015371E1,-1.059047699E0,3.769760742E0,8.591683502E0,9.441912067E0
1.102017471E1,-1.081800385E0,3.645219727E0,8.972790985E0,9.745198663E0
1.103019671E1,-1.046922913E0,3.611090698E0,9.329499207E0,1.005860721E1
1.104021871E1,-1.059047699E0,3.635639648E0,9.620494080E0,1.033892470E1
1.105023971E1,-1.063688049E0,3.747157745E0,9.906698914E0,1.064496627E1
1.106026171E1,-1.031355286E0,3.860322418E0,1.013602203E1,1.089516983E1
1.107028371E1,-1.038540344E0,3.943848724E0,1.012943573E1,1.091961433E1
1.108030571E1,-1.084943848E0,4.039799194E0,9.989776154E0,1.083017582E1
1.109032671E1,-1.142424316E0,4.243675232E0,9.893975372E0,1.082611017E1
1.110034871E1,-1.193468170E0,4.461921387E0,9.796677704E0,1.083088190E1
1.111037071E1,-1.282532959E0,4.551884308E0,9.737400970E0,1.082504130E1
1.112039171E1,-1.358275452E0,4.565505981E0,9.800270233E0,1.089651567E1
1.113041371E1,-1.457818451E0,4.569397888E0,9.922416229E0,1.102084278E1
1.114043571E1,-1.587748260E0,4.540657654E0,1.012329849E1,1.120801895E1
1.115045671E1,-1.630708923E0,4.535717926E0,1.043180695E1,1.149149881E1
1.116047871E1,-1.586251373E0,4.565955048E0,1.069181625E1,1.173367264E1
1.117050071E1,-1.470092926E0,4.632865906E0,1.076965439E1,1.181567075E1
1.118052171E1,-1.338815918E0,4.698579254E0,1.070813232E1,1.177001159E1
1.119054371E1,-1.204694824E0,4.711003418E0,1.054452255E1,1.161170955E1
1.120056571E1,-1.085392914E0,4.717739410E0,1.038749908E1,1.146016056E1
1.121058771E1,-1.009650421E0,4.689597931E0,1.023840912E1,1.130649123E1
1.122060871E1,-9.633966064E-1,4.668342133E0,1.024828857E1,1.130260899E1
1.123063071E1,-9.508227539E-1,4.627028046E0,1.052446426E1,1.153593518E1
1.124065271E1,-8.936416626E-1,4.485721893E0,1.078118042E1,1.171128292E1
1.125067371E1,-8.277786255E-1,4.152814178E0,1.094359268E1,1.173427901E1
1.126069571E1,-8.660989380E-1,3.680695953E0,1.120674545E1,1.182745931E1
1.127071771E1,-9.657916260E-1,3.248394928E0,1.150597321E1,1.199467559E1
1.128073871E1,-1.063388672E0,2.977757721E0,1.178050232E1,1.219746168E1
1.129076071E1,-1.090632019E0,2.840642853E0,1.195833252E1,1.233938599E1
1.130078271E1,-9.400451660E-1,2.786455536E0,1.193348419E1,1.229048674E1
1.131080471E1,-7.203021240E-1,2.710713043E0,1.154623947E1,1.188202198E1
1.132082571E1,-4.885839844E-1,2.661764832E0,1.079510147E1,1.112914741E1
1.133084771E1,-2.865042114E-1,2.597548370E0,9.829908600E0,1.017135415E1
1.134086971E1,-1.743873596E-1,2.557431793E0,8.938063202E0,9.298378468E0
1.135089071E1,-1.296304321E-1,2.568808136E0,8.100255432E0,8.498806819E0
1.136091271E1,-1.540296936E-1,2.681972809E0,7.508236542E0,7.974353846E0
1.137093471E1,-3.079096985E-1,2.936743011E0,7.362589417E0,7.932653454E0
1.138095571E1,-5.447172546E-1,3.175496521E0,7.486082611E0,8.149964902E0
1.139097771E1,-7.794291687E-1,3.268602905E0,7.763605499E0,8.459600767E0
1.140099971E1,-9.457333374E-1,3.209026794E0,7.963889008E0,8.638043334E0
1.141102171E1,-1.060694275E0,3.219355316E0,8.074209595E0,8.756836277E0
1.142104271E1,-1.142723694E0,3.282673645E0,7.960146790E0,8.685948458E0
1.143106471E1,-1.157692566E0,3.316802673E0,7.717201996E0,8.479188564E0
1.144108671E1,-1.089135132E0,3.261717224E0,7.486980743E0,8.238925612E0
1.145110771E1,-9.713301086E-1,3.141217804E0,7.245682526E0,7.956798774E0
1.146112971E1,-8.475375366E-1,3.033741302E0,7.145091705E0,7.808600492E0
1.147115171E1,-7.182064819E-1,2.956801300E0,7.246430969E0,7.859341974E0
1.148117271E1,-6.107299805E-1,2.879112854E0,7.346423035E0,7.914051639E0
1.149119471E1,-5.117857361E-1,2.897823944E0,7.369475098E0,7.935267574E0
1.150121671E1,-4.418811035E-1,2.970123596E0,7.244784393E0,7.842435463E0
1.151123871E1,-4.426295471E-1,3.091521149E0,7.150779877E0,7.803017158E0
1.152125971E1,-4.766088867E-1,3.218457184E0,7.093598785E0,7.804150588E0
1.153128171E1,-5.640270996E-1,3.404370575E0,7.049290924E0,7.848590199E0
1.154130371E1,-6.099815369E-1,3.595672760E0,7.168742523E0,8.043121871E0
1.155132471E1,-6.153703308E-1,3.598217468E0,7.369924164E0,8.224453281E0
1.156134671E1,-6.221063232E-1,3.492387543E0,7.594008179E0,8.381691192E0
1.157136871E1,-6.412664795E-1,3.545976105E0,7.802973633E0,8.594856994E0
1.158138971E1,-6.921606445E-1,3.691922607E0,8.059540100E0,8.891882001E0
1.159141171E1,-7.307803345E-1,3.770808563E0,8.341703339E0,9.183520660E0
1.160143371E1,-7.313790894E-1,3.821403351E0,8.617280273E0,9.454922435E0
1.161145571E1,-7.183561707E-1,3.823498993E0,8.919202423E0,9.730742623E0
1.162147671E1,-7.029382324E-1,3.803141327E0,9.088500366E0,9.877188113E0
1.163149871E1,-6.346801758E-1,3.804787903E0,9.029972076E0,9.819349551E0
1.164152071E1,-5.578898621E-1,3.811523895E0,8.862620087E0,9.663590963E0
1.165154171E1,-4.977149963E-1,3.864214325E0,8.685837708E0,9.519645437E0
1.166156371E1,-4.607418823E-1,3.993246002E0,8.514893188E0,9.416034342E0
1.167158571E1,-5.096900940E-1,4.100872192E0,8.511450348E0,9.461592031E0
1.168160671E1,-6.215075684E-1,4.083508301E0,8.758885803E0,9.683976054E0
1.169162871E1,-7.514373779E-1,4.027225342E0,9.168583832E0,1.004221746E1
1.170165071E1,-9.069639587E-1,4.000580750E0,9.587412872E0,1.042812138E1
1.171167271E1,-1.092727661E0,4.014501801E0,9.905501404E0,1.074379991E1
1.172169371E1,-1.190923462E0,4.071533203E0,1.006462051E1,1.092209995E1
1.173171571E1,-1.283131714E0,4.155807953E0,9.994117126E0,1.089952035E1
1.174173771E1,-1.424587555E0,4.160897369E0,1.004575974E1,1.096630317E1
1.175175871E1,-1.514849854E0,4.228706360E0,1.019005966E1,1.113615928E1
1.176178029E1,-1.553020477E0,4.285438385E0,1.029289581E1,1.125702265E1
1.177180229E1,-1.533261566E0,4.197421417E0,1.038255936E1,1.130339667E1
1.178182429E1,-1.410816193E0,4.221221924E0,1.032702484E1,1.124529052E1
1.179184529E1,-1.251547394E0,4.251309357E0,1.001267853E1,1.094959969E1
1.180186729E1,-1.223705292E0,4.283043365E0,9.787546692E0,1.075351037E1
1.181188929E1,-1.305734711E0,4.358935547E0,9.753717041E0,1.076291124E1
1.182191029E1,-1.470092926E0,4.357139282E0,9.664951630E0,1.070313627E1
1.183193229E1,-1.751657410E0,4.345313873E0,9.519454193E0,1.060990407E1
1.184195429E1,-2.182910614E0,4.321064301E0,9.602531433E0,1.075385072E1
1.185197529E1,-2.565215607E0,4.240232391E0,9.953252106E0,1.111877373E1
1.186199729E1,-2.827470245E0,3.991749115E0,1.058134598E1,1.165733810E1
1.187201929E1,-2.966381378E0,3.534749451E0,1.133862122E1,1.224165852E1
1.188204129E1,-2.781216431E0,2.998863831E0,1.183888092E1,1.252547207E1
1.189206229E1,-2.333198090E0,2.549198914E0,1.188094345E1,1.237331991E1
1.190208429E1,-1.809137878E0,2.055375824E0,1.145597717E1,1.177866557E1
1.191210629E1,-1.340462494E0,1.697320404E0,1.059332108E1,1.081185403E1
1.192212729E1,-9.734257507E-1,1.618135071E0,9.582024078E0,9.766325012E0
1.193214929E1,-8.810678101E-1,1.643731842E0,8.846902771E0,9.041339696E0
1.194217129E1,-9.235794067E-1,1.925446014E0,8.746611328E0,9.003529919E0
1.195219329E1,-1.129251709E0,2.173330536E0,8.992100830E0,9.319680916E0
1.196221429E1,-1.332678680E0,2.315834198E0,9.549541626E0,9.916292945E0
1.197223629E1,-1.515149231E0,2.345771942E0,1.016476227E1,1.054138108E1
1.198225829E1,-1.660197601E0,2.359842682E0,1.055979080E1,1.094688519E1
1.199227929E1,-1.740580444E0,2.481240234E0,1.054467224E1,1.097161274E1
1.200230129E1,-1.800904999E0,2.720442810E0,1.013213013E1,1.064444122E1
1.201232329E1,-1.839973755E0,2.976560211E0,9.440418549E0,1.006811385E1
1.202234529E1,-1.866917725E0,3.243455200E0,8.673413544E0,9.446347756E0
1.203236629E1,-1.789378967E0,3.464695129E0,7.927814026E0,8.834943387E0
1.204238829E1,-1.633553009E0,3.531156921E0,7.276069336E0,8.250984767E0
1.205241029E1,-1.418600006E0,3.484304352E0,6.826254730E0,7.794264329E0
1.206243129E1,-1.160237274E0,3.431613922E0,6.622079315E0,7.548116262E0
1.207245329E1,-8.767268372E-1,3.356769562E0,6.605912933E0,7.461543910E0
1.208247529E1,-6.433621216E-1,3.259771271E0,6.725663910E0,7.501638393E0
1.209249729E1,-4.884342957E-1,3.162323914E0,6.859335938E0,7.568972856E0
1.210251829E1,-4.085005188E-1,3.059637451E0,7.017706604E0,7.666580723E0
1.211254029E1,-4.261637878E-1,3.056044922E0,7.355254669E0,7.976264626E0
1.212256229E1,-5.510041809E-1,3.208727417E0,7.694748688E0,8.355159760E0
1.213258329E1,-7.500901794E-1,3.351380768E0,7.974516907E0,8.682586494E0
1.214260529E1,-8.990304565E-1,3.496279449E0,8.212072906E0,8.970527698E0
1.215262729E1,-1.044677582E0,3.590882721E0,8.432564392E0,9.224637239E0
1.216264829E1,-1.203647003E0,3.702251129E0,8.585246887E0,9.426658668E0
1.217267029E1,-1.266815643E0,3.864663391E0,8.656798096E0,9.564549036E0
1.218269229E1,-1.274150391E0,3.913312225E0,8.751700745E0,9.671077381E0
1.219271429E1,-1.339115295E0,3.858226776E0,8.949888611E0,9.837664854E0
1.220273529E1,-1.323098602E0,3.798051910E0,9.092392273E0,9.942202245E0
1.221275729E1,-1.237027588E0,3.776796112E0,9.114995270E0,9.943719872E0
1.222277929E1,-1.135538635E0,3.675756226E0,9.027876434E0,9.813418606E0
1.223280029E1,-1.000070343E0,3.607049103E0,8.943751373E0,9.695443907E0
1.224282229E1,-9.195378113E-1,3.556903381E0,8.875942383E0,9.606220101E0
1.225284429E1,-8.740324402E-1,3.598816223E0,8.852740631E0,9.596167339E0
1.226286629E1,-8.568182373E-1,3.664978638E0,8.890911255E0,9.654766121E0
1.227288729E1,-8.622070313E-1,3.702251129E0,8.988059235E0,9.758856142E0
1.228290929E1,-8.690927124E-1,3.681294708E0,9.123826904E0,9.876814783E0
1.229293129E1,-9.038204956E-1,3.710184631E0,9.187294922E0,9.949308995E0
1.230295229E1,-9.620494080E-1,3.811523895E0,9.114097137E0,9.925725167E0
1.231297429E1,-1.051114197E0,3.873644714E0,9.026678925E0,9.878810497E0
1.232299629E1,-1.235081635E0,4.038451996E0,9.068442078E0,1.000355751E1
1.233301829E1,-1.419348450E0,4.299958191E0,9.267827454E0,1.031488324E1
1.234303929E1,-1.555565186E0,4.360582123E0,9.450298004E0,1.052343061E1
1.235306129E1,-1.600471802E0,4.373305664E0,9.607920227E0,1.067705219E1
1.236308329E1,-1.559008026E0,4.402944031E0,9.768087158E0,1.082737036E1
1.237310429E1,-1.533560944E0,4.351451111E0,1.003123993E1,1.104140890E1
1.238312629E1,-1.507964172E0,4.287534027E0,1.033226395E1,1.128771820E1
1.239314829E1,-1.507215729E0,4.273912354E0,1.068957092E1,1.161055350E1
1.240317029E1,-1.475781097E0,4.184697876E0,1.107891129E1,1.193448371E1
1.241319129E1,-1.395398254E0,4.027225342E0,1.135823044E1,1.213157364E1
1.242321329E1,-1.240171051E0,3.699706421E0,1.151315826E1,1.215642485E1
1.243323529E1,-1.124311981E0,3.211421814E0,1.161644348E1,1.210450605E1
1.244325629E1,-1.173858948E0,2.850522308E0,1.162871796E1,1.203039914E1
1.245327829E1,-1.390458527E0,2.737207947E0,1.174652298E1,1.214110721E1
1.246330029E1,-1.624421997E0,2.694247284E0,1.202868622E1,1.243330235E1
1.247332229E1,-1.799258423E0,2.565814362E0,1.233270401E1,1.272463447E1
1.248334329E1,-1.742376709E0,2.492167511E0,1.247071701E1,1.283610370E1
1.249336529E1,-1.494641876E0,2.428250427E0,1.228151047E1,1.260816616E1
1.250338729E1,-1.116079102E0,2.340832214E0,1.157213562E1,1.185915051E1
1.251340829E1,-7.309300232E-1,2.285447388E0,1.057730438E1,1.084605442E1
1.252343029E1,-4.755610657E-1,2.266885986E0,9.591753845E0,9.867455205E0
1.253345229E1,-3.686833191E-1,2.389780426E0,8.724158020E0,9.053060865E0
1.254347429E1,-3.622467041E-1,2.513273621E0,8.079748077E0,8.469362193E0
1.255349529E1,-4.065545654E-1,2.585423584E0,7.919281769E0,8.340547072E0
1.256351729E1,-5.361849976E-1,2.739752655E0,8.260572052E0,8.719563612E0
1.257353929E1,-7.587721252E-1,2.931803284E0,8.735384674E0,9.245439472E0
1.258356029E1,-9.253756714E-1,3.115321655E0,9.101523285E0,9.664330047E0
1.259358229E1,-9.499246216E-1,3.235671387E0,9.243428192E0,9.839354189E0
1.260360429E1,-8.422984314E-1,3.291505280E0,9.114845581E0,9.727480847E0
1.261362629E1,-5.806425476E-1,3.163521423E0,8.832682343E0,9.400068666E0
1.262364729E1,-3.240760803E-1,2.833607483E0,8.439001007E0,8.907923140E0
1.263366929E1,-1.431024170E-1,2.515069885E0,7.970026245E0,8.358670539E0
1.264369129E1,-7.125183105E-2,2.351909180E0,7.520061951E0,7.879586623E0
1.265371229E1,-1.546284485E-1,2.271526337E0,7.171287231E0,7.524034982E0
1.266373429E1,-2.770738220E-1,2.229763184E0,7.141798553E0,7.486915275E0
1.267375629E1,-3.147953796E-1,2.203417969E0,7.400310974E0,7.727790719E0
1.268377829E1,-4.137396240E-1,2.228116608E0,7.819439392E0,8.141210997E0
1.269379929E1,-5.397775269E-1,2.397414551E0,8.216713257E0,8.576323982E0
1.270382129E1,-5.719606018E-1,2.721640320E0,8.419092407E0,8.866542839E0
1.271384329E1,-5.776487732E-1,2.872526550E0,8.312813416E0,8.814077023E0
1.272386429E1,-5.752537537E-1,2.893782349E0,8.030350800E0,8.555198836E0
1.273388629E1,-5.412744141E-1,2.895728302E0,7.657476196E0,8.204581774E0
1.274390829E1,-4.905299377E-1,2.870281219E0,7.319778442E0,7.877708445E0
1.275393029E1,-4.540058899E-1,2.845432892E0,7.085216217E0,7.648718751E0
1.276395167E1,-4.549040222E-1,2.855312347E0,7.012317810E0,7.585008065E0
1.277397367E1,-5.560935974E-1,2.984044647E0,7.263495483E0,7.872237876E0
1.278399567E1,-7.149133301E-1,3.177292786E0,7.775430908E0,8.429923862E0
1.279401667E1,-8.571176147E-1,3.431613922E0,8.336613922E0,9.055923829E0
1.280403867E1,-9.611512756E-1,3.667523346E0,8.762178955E0,9.547267636E0
1.281406067E1,-9.765692139E-1,3.750301208E0,8.927884369E0,9.732705990E0
1.282408267E1,-9.183403015E-1,3.789968719E0,8.883576508E0,9.701811345E0
1.283410367E1,-8.541238403E-1,3.735931091E0,8.782087555E0,9.581845880E0
1.284412567E1,-8.237370300E-1,3.625311127E0,8.700956268E0,9.461927047E0
1.285414767E1,-8.367599487E-1,3.560645599E0,8.707243195E0,9.444281251E0
1.286416867E1,-9.153465271E-1,3.527414703E0,8.827742615E0,9.550369282E0
1.287419067E1,-9.696835327E-1,3.511398010E0,9.022188263E0,9.729855250E0
1.288421267E1,-1.052012329E0,3.620371399E0,9.201515350E0,9.943927984E0
1.289423467E1,-1.199904785E0,3.784280548E0,9.404193878E0,1.020781138E1
1.290425567E1,-1.252595215E0,3.865411835E0,9.417067108E0,1.025629350E1
1.291427767E1,-1.304686890E0,3.820954285E0,9.348359985E0,1.018301203E1
1.292429967E1,-1.444645844E0,3.840563507E0,9.410331116E0,1.026602461E1
1.293432067E1,-1.491199036E0,3.990102539E0,9.469458160E0,1.038341132E1
1.294434267E1,-1.506467285E0,3.915407867E0,9.538015594E0,1.041986583E1
1.295436467E1,-1.414408722E0,3.513793030E0,9.519304504E0,1.024521604E1
1.296438667E1,-1.032253418E0,3.359763336E0,9.173972626E0,9.824221625E0
1.297440767E1,-7.861651611E-1,3.173999634E0,9.012009430E0,9.586899567E0
1.298442967E1,-7.360194397E-1,3.037184143E0,8.934320984E0,9.465109803E0
1.299445167E1,-6.186634827E-1,3.328478394E0,9.037456512E0,9.650758164E0
1.300447267E1,-8.693920898E-1,3.410507812E0,9.647737427E0,1.026967592E1
1.301449467E1,-1.153201904E0,3.787274323E0,1.024170227E1,1.098024530E1
1.302451667E1,-1.577868805E0,4.001478882E0,1.110226273E1,1.190637396E1
1.303453867E1,-2.046244812E0,3.805386658E0,1.222896973E1,1.296980285E1
1.304455967E1,-2.309547272E0,3.419339447E0,1.328876587E1,1.391463938E1
1.305458167E1,-2.364183655E0,2.775827637E0,1.413061523E1,1.459345300E1
1.306460367E1,-2.239343262E0,2.177072754E0,1.466365677E1,1.499256929E1
1.307462467E1,-1.991758118E0,1.817819824E0,1.466186050E1,1.490777390E1
1.308464667E1,-1.687890015E0,1.645079041E0,1.413061523E1,1.432583487E1
1.309466867E1,-1.417851562E0,1.561702423E0,1.321886124E1,1.338609390E1
1.310469067E1,-1.164877625E0,1.409618683E0,1.194366302E1,1.208284119E1
1.311471167E1,-9.285191345E-1,1.332079926E0,1.070588699E1,1.082832402E1
1.312473367E1,-7.746391296E-1,1.315314789E0,9.802216187E0,9.920360928E0
1.313475567E1,-6.511459351E-1,1.389410706E0,9.238039398E0,9.364604907E0
1.314477767E1,-5.942642212E-1,1.575174408E0,8.911268921E0,9.068905014E0
1.315479867E1,-6.614744568E-1,1.786684570E0,8.790320435E0,8.994416243E0
1.316482067E1,-8.238867188E-1,1.991608429E0,8.651109924E0,8.915548014E0
1.317484267E1,-9.698332214E-1,2.210453339E0,8.308023376E0,8.651585569E0
1.318486367E1,-1.123264160E0,2.394869843E0,7.933651886E0,8.363011191E0
1.319488567E1,-1.279838562E0,2.639461212E0,7.659122772E0,8.201640316E0
1.320490767E1,-1.344653778E0,2.827619934E0,7.416776733E0,8.050596586E0
1.321492967E1,-1.375489655E0,2.916684723E0,7.240742798E0,7.926372299E0
1.322495067E1,-1.356479187E0,3.031196594E0,7.156767426E0,7.889709029E0
1.323497267E1,-1.307231598E0,3.134631500E0,6.996450806E0,7.777216274E0
1.324499467E1,-1.275347900E0,3.199147339E0,6.904392242E0,7.715678078E0
1.325501567E1,-1.193168793E0,3.210673370E0,6.936126251E0,7.735756112E0
1.326503767E1,-1.037043457E0,3.143014069E0,7.008575592E0,7.750750183E0
1.327505967E1,-8.669970703E-1,2.979553986E0,7.144193573E0,7.789026106E0
1.328508167E1,-6.746470642E-1,2.880609741E0,7.232210541E0,7.813957413E0
1.329510267E1,-5.108876038E-1,2.796933746E0,7.313940582E0,7.847137782E0
1.330512467E1,-4.543052673E-1,2.682272186E0,7.448211365E0,7.929491150E0
1.331514667E1,-4.816983032E-1,2.722388763E0,7.623197479E0,8.109042708E0
1.332516767E1,-6.716532898E-1,2.826721802E0,7.802524567E0,8.325915199E0
1.333518967E1,-9.045689392E-1,2.917582855E0,8.095764771E0,8.652857441E0
1.334521167E1,-1.059197388E0,3.049757996E0,8.393345947E0,8.992840437E0
1.335523367E1,-1.219813385E0,3.191662903E0,8.586444397E0,9.241303164E0
1.336525467E1,-1.402283936E0,3.334316254E0,8.742270355E0,9.461044133E0
1.337527667E1,-1.570833435E0,3.462449799E0,8.810827789E0,9.596184795E0
1.338529867E1,-1.684746552E0,3.568429413E0,8.749455414E0,9.598178445E0
1.339532067E1,-1.793270874E0,3.685485992E0,8.800499268E0,9.708110773E0
1.340534167E1,-1.859133911E0,3.779340820E0,8.967102814E0,9.907004028E0
1.341536367E1,-1.792821808E0,3.840862885E0,9.075926514E0,1.001692966E1
1.342538567E1,-1.675914917E0,3.821553040E0,9.196575623E0,1.009900795E1
1.343540667E1,-1.544338531E0,3.732188873E0,9.216484222E0,1.006269331E1
1.344542867E1,-1.383273468E0,3.661984863E0,9.169182587E0,9.969828882E0
1.345545067E1,-1.246008911E0,3.662733307E0,9.214388580E0,9.993653506E0
1.346547267E1,-1.185384979E0,3.661386108E0,9.255852356E0,1.002405550E1
1.347549367E1,-1.183289337E0,3.708388367E0,9.365723877E0,1.014244062E1
1.348551567E1,-1.183738403E0,3.867806854E0,9.536518707E0,1.035887810E1
1.349553767E1,-1.223555603E0,4.013004913E0,9.580676880E0,1.045899929E1
1.350555867E1,-1.291214905E0,4.058061218E0,9.567055206E0,1.047204097E1
1.351558067E1,-1.310674438E0,4.055516510E0,9.542356567E0,1.045091625E1
1.352560267E1,-1.346599731E0,4.076622620E0,9.581275635E0,1.049919166E1
1.353562467E1,-1.411414948E0,4.143383789E0,9.630972290E0,1.057900509E1
1.354564567E1,-1.408720551E0,4.302652588E0,9.713301086E0,1.071660071E1
1.355566767E1,-1.378633118E0,4.472549286E0,9.760003967E0,1.082413987E1
1.356568967E1,-1.323547668E0,4.580025787E0,9.676926727E0,1.078755420E1
1.357571167E1,-1.237776031E0,4.661007385E0,9.616003418E0,1.075753694E1
1.358573267E1,-1.228195953E0,4.697082367E0,9.760153656E0,1.090099296E1
1.359575467E1,-1.294807434E0,4.621938629E0,1.017434235E1,1.124971489E1
1.360577667E1,-1.363963623E0,4.396357727E0,1.087204147E1,1.180633914E1
1.361579767E1,-1.385069733E0,3.988755341E0,1.172197403E1,1.245926412E1
1.362581967E1,-1.292711792E0,3.411405945E0,1.243404327E1,1.295817219E1
1.363584167E1,-1.145268402E0,2.928959198E0,1.267264709E1,1.305704507E1
1.364586367E1,-1.212628326E0,2.750679932E0,1.245185623E1,1.280958357E1
1.365588467E1,-1.557810516E0,2.949167175E0,1.201162170E1,1.246609067E1
1.366590667E1,-1.988914032E0,3.399430847E0,1.162602356E1,1.227502884E1
1.367592867E1,-2.127825165E0,3.504662018E0,1.085632416E1,1.160474343E1
1.368594967E1,-1.941013641E0,3.064876556E0,1.015757721E1,1.078598058E1
1.369597167E1,-1.476080475E0,2.275418243E0,9.689650269E0,1.006209044E1
1.370599367E1,-9.812095642E-1,1.552721100E0,9.670041046E0,9.842937004E0
1.371601567E1,-6.420149231E-1,1.235231323E0,9.800270233E0,9.898650222E0
1.372603667E1,-5.275030518E-1,1.324745178E0,9.882000275E0,9.984344680E0
1.373605867E1,-5.785469055E-1,1.656605072E0,9.991871796E0,1.014477988E1
1.374608067E1,-6.758445740E-1,1.985620880E0,9.895172882E0,1.011503349E1
1.375610267E1,-9.732760620E-1,2.201771393E0,9.810149689E0,1.010119302E1
1.376612379E1,-1.132844238E0,2.525847473E0,9.487720184E0,9.883323116E0
1.377614579E1,-1.153052216E0,2.718945923E0,9.188342743E0,9.651312797E0
1.378616779E1,-1.140029297E0,2.634820862E0,8.953331451E0,9.402345019E0
1.379618879E1,-1.062340851E0,2.514022064E0,8.736282806E0,9.152677876E0
1.380621079E1,-9.020242310E-1,2.304158478E0,8.727151794E0,9.071161582E0
1.381623279E1,-7.259902954E-1,2.104473724E0,8.769962769E0,9.048100272E0
1.382625479E1,-5.587879944E-1,1.975741425E0,8.710536346E0,8.949259279E0
1.383627579E1,-5.444178772E-1,1.935624847E0,8.613238678E0,8.844824187E0
1.384629779E1,-6.258485413E-1,1.982327728E0,8.445138245E0,8.697221947E0
1.385631979E1,-7.828720093E-1,2.125280457E0,8.200397186E0,8.507421443E0
1.386634079E1,-9.765692139E-1,2.304757233E0,8.087232513E0,8.465750000E0
1.387636279E1,-1.117276611E0,2.478396149E0,7.973768463E0,8.424472565E0
1.388638479E1,-1.153052216E0,2.620750122E0,7.817343750E0,8.325186119E0
1.389640679E1,-1.131197662E0,2.631527710E0,7.681875458E0,8.198521622E0
1.390642779E1,-1.060843964E0,2.620600433E0,7.534432068E0,8.047397289E0
1.391644979E1,-8.939410400E-1,2.619851990E0,7.357350311E0,7.860875182E0
1.392647179E1,-7.869136047E-1,2.553090820E0,7.111711121E0,7.596969187E0
1.393649379E1,-7.066804504E-1,2.569706268E0,6.959777069E0,7.452602526E0
1.394651479E1,-6.583309937E-1,2.583777008E0,6.861281891E0,7.361147500E0
1.395653679E1,-6.611750793E-1,2.598895569E0,6.947352905E0,7.446953945E0
1.396655879E1,-7.123686218E-1,2.850522308E0,7.226971436E0,7.801414142E0
1.397657979E1,-8.514294434E-1,3.194207611E0,7.412884827E0,8.116572911E0
1.398660179E1,-9.916877747E-1,3.441942444E0,7.637717285E0,8.435943205E0
1.399662379E1,-1.098715210E0,3.514691162E0,7.884553986E0,8.702092888E0
1.400664579E1,-1.098565521E0,3.507805481E0,8.131690063E0,8.923896502E0
1.401666679E1,-1.023571472E0,3.443589020E0,8.376580811E0,9.114445127E0
1.402668879E1,-9.038204956E-1,3.341651001E0,8.481213226E0,9.160485833E0
1.403671079E1,-7.735913086E-1,3.273991699E0,8.462352448E0,9.106529202E0
1.404673279E1,-7.617658997E-1,3.323838043E0,8.449030151E0,9.111218202E0
1.405675379E1,-8.640032959E-1,3.478017426E0,8.546178131E0,9.267160706E0
1.406677579E1,-1.006956024E0,3.688180389E0,8.825048218E0,9.617593829E0
1.407679779E1,-1.165027313E0,3.881877594E0,9.142987061E0,1.000102368E1
1.408681879E1,-1.306034088E0,4.046385498E0,9.582622833E0,1.048358817E1
1.409684079E1,-1.389410706E0,4.163292389E0,1.000699036E1,1.092718269E1
1.410686279E1,-1.412612457E0,4.190984802E0,1.022284149E1,1.113850599E1
1.411688479E1,-1.428928528E0,4.142635345E0,1.027822632E1,1.117341490E1
1.412690579E1,-1.454974365E0,4.055217133E0,1.032552795E1,1.118830925E1
1.413692779E1,-1.450783081E0,4.029021606E0,1.051368668E1,1.135232990E1
1.414694979E1,-1.428778839E0,3.948638763E0,1.080498093E1,1.159227199E1
1.415697179E1,-1.311273193E0,3.822451172E0,1.090182953E1,1.162671310E1
1.416699279E1,-1.017883301E0,3.779640198E0,1.075528427E1,1.144543167E1
1.417701479E1,-8.005352783E-1,3.738026733E0,1.036564453E1,1.104808975E1
1.418703679E1,-7.192543030E-1,3.873794403E0,1.001821701E1,1.076514198E1
1.419705779E1,-7.732919312E-1,4.149371338E0,9.793384552E0,1.066422261E1
1.420707979E1,-1.086291046E0,4.445605316E0,9.741592255E0,1.076299468E1
1.421710179E1,-1.544338531E0,4.772226105E0,1.002345612E1,1.120842522E1
1.422712379E1,-1.935924225E0,4.884642334E0,1.064945435E1,1.187511731E1
1.423714479E1,-2.227218475E0,4.614005127E0,1.167916306E1,1.275352481E1
1.424716679E1,-2.446961517E0,3.812122650E0,1.274015671E1,1.352151962E1
1.425718879E1,-2.383942566E0,2.949017487E0,1.410232407E1,1.460326780E1
1.426721079E1,-2.202370148E0,2.298769684E0,1.478909592E1,1.512785954E1
1.427723179E1,-1.888323212E0,2.119442596E0,1.447220490E1,1.474796650E1
1.428725379E1,-1.636995850E0,2.107168121E0,1.350925735E1,1.377025589E1
1.429727579E1,-1.522184601E0,2.114053802E0,1.213676147E1,1.241318849E1
1.430729679E1,-1.457070007E0,2.209854584E0,1.064092209E1,1.096520557E1
1.431731879E1,-1.577569427E0,2.109563141E0,9.698631592E0,1.004999685E1
1.432734079E1,-1.451082458E0,2.299368439E0,9.145681458E0,9.541290523E0
1.433736279E1,-1.443897400E0,2.360890503E0,9.176217957E0,9.584446758E0
1.434738379E1,-1.479373627E0,2.132166138E0,9.313632202E0,9.668424048E0
1.435740579E1,-1.402882690E0,1.978585510E0,9.402547302E0,9.710343775E0
1.436742779E1,-1.362616425E0,1.806593170E0,9.286538544E0,9.558258237E0
1.437744979E1,-1.451381836E0,1.774110718E0,9.037007446E0,9.323169078E0
1.438747079E1,-1.438807983E0,1.821562042E0,8.511600037E0,8.822448179E0
1.439749279E1,-1.509011993E0,1.898951111E0,7.973169708E0,8.333940707E0
1.440751479E1,-1.551224213E0,2.184407501E0,7.530540161E0,7.992932366E0
1.441753579E1,-1.548978882E0,2.514770508E0,7.171885986E0,7.756246185E0
1.442755779E1,-1.610950012E0,2.779420166E0,6.969656525E0,7.674402157E0
1.443757979E1,-1.647024994E0,2.979254608E0,6.901548157E0,7.695454263E0
1.444760179E1,-1.606758728E0,3.129542084E0,6.881639557E0,7.728691368E0
1.445762279E1,-1.562001801E0,3.171155548E0,6.836882629E0,7.696690277E0
1.446764479E1,-1.432521057E0,3.096011810E0,6.810986481E0,7.617541765E0
1.447766679E1,-1.225800934E0,2.985691223E0,6.813082123E0,7.538900982E0
1.448768779E1,-9.882449341E-1,2.898123322E0,6.829547882E0,7.484548825E0
1.449770979E1,-7.888595581E-1,2.778821411E0,6.826254730E0,7.412280451E0
1.450773179E1,-6.732998657E-1,2.794389038E0,6.870412903E0,7.447450319E0
1.451775379E1,-6.837780762E-1,2.869832153E0,7.060966644E0,7.652498873E0
1.452777479E1,-7.060816956E-1,2.978955231E0,7.325915680E0,7.939884519E0
1.453779679E1,-7.406597900E-1,3.050207062E0,7.576344910E0,8.200813511E0
1.454781879E1,-8.382568359E-1,3.148402863E0,7.814050598E0,8.466079486E0
1.455784079E1,-9.376501465E-1,3.364703064E0,7.932454376E0,8.667424470E0
1.456786179E1,-1.088985443E0,3.461102600E0,8.052055664E0,8.831801680E0
1.457788379E1,-1.196162567E0,3.485501862E0,8.354726257E0,9.131318577E0
1.458790579E1,-1.199455719E0,3.531156921E0,8.688083038E0,9.454657588E0
1.459792779E1,-1.195863190E0,3.529061279E0,8.960067444E0,9.703977065E0
1.460794879E1,-1.229393463E0,3.455863495E0,9.187444611E0,9.892600227E0
1.461797079E1,-1.244661713E0,3.515888672E0,9.334588623E0,1.005212419E1
1.462799279E1,-1.277293854E0,3.599414978E0,9.343569946E0,1.009403622E1
1.463801379E1,-1.246308289E0,3.597768402E0,9.234147491E0,9.988328275E0
1.464803579E1,-1.155147858E0,3.632346497E0,9.169631653E0,9.930279568E0
1.465805779E1,-1.078656921E0,3.636088715E0,9.023385773E0,9.788060722E0
1.466807979E1,-1.011895752E0,3.704795837E0,8.977581024E0,9.764548441E0
1.467810079E1,-9.613009644E-1,3.779939575E0,9.001680908E0,9.810316096E0
1.468812279E1,-1.006207581E0,3.813170471E0,8.978778534E0,9.806690915E0
1.469814479E1,-1.189426575E0,3.868555298E0,9.040749664E0,9.905332410E0
1.470816579E1,-1.337319031E0,3.994742889E0,9.225315857E0,1.014163920E1
1.471818779E1,-1.462458801E0,4.043092346E0,9.462123413E0,1.039313047E1
1.472820979E1,-1.547032928E0,3.955075378E0,9.845625916E0,1.072251285E1
1.473823179E1,-1.535806274E0,3.975133667E0,1.025652145E1,1.110660258E1
1.474825279E1,-1.582808533E0,4.077969818E0,1.060858932E1,1.147507247E1
1.475827479E1,-1.767225037E0,4.221521301E0,1.105585922E1,1.196563202E1
1.476829654E1,-1.929337921E0,4.274211731E0,1.136930740E1,1.229847070E1
1.477831854E1,-1.966161346E0,4.145629120E0,1.155731644E1,1.243477360E1
1.478833954E1,-1.899699554E0,3.935017090E0,1.163440613E1,1.242789700E1
1.479836154E1,-1.891167297E0,3.710334320E0,1.172212372E1,1.243990671E1
1.480838354E1,-1.937570801E0,3.544179840E0,1.182495987E1,1.249580199E1
1.481840554E1,-2.007475433E0,3.498524780E0,1.185834045E1,1.252556871E1
1.482842654E1,-2.063758392E0,3.503614197E0,1.180205750E1,1.248290720E1
1.483844854E1,-2.072889404E0,3.450325012E0,1.173335037E1,1.240456062E1
1.484847054E1,-2.009870453E0,3.281625824E0,1.148172363E1,1.210944362E1
1.485849154E1,-1.781295776E0,3.153342590E0,1.114357681E1,1.171733282E1
1.486851354E1,-1.446442108E0,3.165617065E0,1.065364563E1,1.120774247E1
1.487853554E1,-1.064137115E0,3.163820801E0,9.986632690E0,1.052971901E1
1.488855754E1,-6.747967529E-1,3.046464844E0,9.343420258E0,9.850675145E0
1.489857854E1,-3.670367432E-1,2.893782349E0,8.767118683E0,9.239646219E0
1.490860054E1,-1.362167358E-1,2.770289154E0,8.388705597E0,8.835351639E0
1.491862254E1,-6.137237549E-2,2.640658722E0,8.187224579E0,8.602760682E0
1.492864454E1,-1.122665405E-1,2.597548370E0,8.129145355E0,8.534803192E0
1.493866554E1,-2.737806702E-1,2.663261719E0,8.221503296E0,8.646446396E0
1.494868754E1,-4.797523499E-1,2.739902344E0,8.459508362E0,8.905083318E0
1.495870954E1,-6.713539124E-1,2.808310089E0,8.842412109E0,9.301912360E0
1.496873054E1,-8.376580811E-1,2.804867249E0,9.177415466E0,9.632959358E0
1.497875254E1,-9.000782776E-1,2.728675690E0,9.210496674E0,9.648267249E0
1.498877454E1,-8.030799866E-1,2.687211914E0,8.834029541E0,9.268555619E0
1.499879654E1,-7.143145752E-1,2.692301331E0,8.270601196E0,8.727059981E0
1.500881754E1,-6.909631348E-1,2.701582031E0,7.877817993E0,8.356793156E0
1.501883954E1,-6.813830566E-1,2.775528259E0,7.596253510E0,8.116089414E0
1.502886154E1,-6.650669861E-1,2.836750946E0,7.368576965E0,7.923723652E0
1.503888354E1,-6.334826660E-1,2.833757172E0,7.327562256E0,7.881919094E0
1.504890454E1,-5.801934814E-1,2.752775574E0,7.326215057E0,7.847791084E0
1.505892654E1,-4.888833618E-1,2.686613159E0,7.227121124E0,7.725812381E0
1.506894854E1,-4.330494690E-1,2.644550629E0,7.128476257E0,7.615533706E0
1.507896954E1,-4.062551880E-1,2.641257477E0,7.018305359E0,7.509853157E0
1.508899154E1,-3.749702454E-1,2.755469971E0,6.985074463E0,7.518276578E0
1.509901354E1,-3.977229309E-1,2.939138031E0,7.041806488E0,7.640926286E0
1.510903554E1,-4.311035156E-1,3.097508698E0,7.134314117E0,7.789662913E0
1.511905654E1,-4.876858521E-1,3.137176208E0,7.359595642E0,8.015195573E0
1.512907854E1,-5.287005615E-1,3.160078583E0,7.595355377E0,8.243484957E0
1.513910054E1,-6.018983459E-1,3.201392670E0,7.846533051E0,8.495838838E0
1.514912254E1,-7.200027466E-1,3.234174500E0,8.170459442E0,8.816728200E0
1.515914354E1,-7.908055115E-1,3.272045746E0,8.397986298E0,9.047531739E0
1.516916554E1,-8.798703003E-1,3.326682129E0,8.598269806E0,9.261275797E0
1.517918754E1,-9.366023254E-1,3.395389252E0,8.821006622E0,9.498212985E0
1.518920854E1,-9.136999512E-1,3.549418945E0,9.032816162E0,9.748076234E0
1.519923054E1,-8.406518555E-1,3.742367706E0,9.076824646E0,9.853971648E0
1.520925254E1,-7.729925537E-1,3.786825256E0,8.977131958E0,9.773763922E0
1.521927454E1,-7.244934082E-1,3.742816772E0,8.845405884E0,9.631966224E0
1.522929554E1,-7.204518127E-1,3.819607086E0,8.831484833E0,9.649019300E0
1.523931754E1,-8.604107666E-1,3.893104248E0,9.078770599E0,9.915676627E0
1.524933954E1,-1.025966492E0,3.948489075E0,9.359586639E0,1.021004580E1
1.525936154E1,-1.219214630E0,3.941304016E0,9.547146606E0,1.040040240E1
1.526938254E1,-1.450334015E0,3.857478333E0,9.734407196E0,1.057082264E1
1.527940454E1,-1.588646393E0,3.871848450E0,9.790540466E0,1.064752039E1
1.528942654E1,-1.623374176E0,3.884122925E0,9.802066498E0,1.066781431E1
1.529944754E1,-1.712438965E0,3.832330627E0,9.965825958E0,1.081373628E1
1.530946954E1,-1.692680054E0,3.694467316E0,1.028107040E1,1.105507409E1
1.531949154E1,-1.476529541E0,3.528163147E0,1.055260574E1,1.122432905E1
1.532951354E1,-1.198856964E0,3.322341156E0,1.068672684E1,1.125528051E1
1.533953454E1,-1.018032990E0,3.168760529E0,1.074510544E1,1.124876550E1
1.534955654E1,-9.729766846E-1,3.294049988E0,1.088581284E1,1.141483114E1
1.535957854E1,-1.071471863E0,3.431464233E0,1.094823303E1,1.152331572E1
1.536960054E1,-1.287173309E0,3.512595520E0,1.076067307E1,1.139241973E1
1.537962154E1,-1.679956512E0,3.404520264E0,1.070603668E1,1.135923561E1
1.538964354E1,-2.092798004E0,3.206332397E0,1.140029297E1,1.202609873E1
1.539966554E1,-2.343376923E0,2.978955231E0,1.292008255E1,1.346455060E1
1.540968654E1,-2.232756958E0,2.495310974E0,1.426129349E1,1.464910483E1
1.541970854E1,-2.026785278E0,1.996099091E0,1.532004181E1,1.558191102E1
1.542973054E1,-1.541793823E0,1.758243713E0,1.506377472E1,1.524420736E1
1.543975254E1,-1.087937622E0,1.671873322E0,1.351284988E1,1.365927819E1
1.544977354E1,-7.551795959E-1,1.673669586E0,1.112426697E1,1.127478522E1
1.545979554E1,-6.182144165E-1,1.995799713E0,9.057215424E0,9.295082398E0
1.546981754E1,-5.746549988E-1,2.378853149E0,7.499853973E0,7.889041786E0
1.547983954E1,-5.849835205E-1,2.762954407E0,6.736142120E0,7.304227094E0
1.548986054E1,-7.237449646E-1,3.058140564E0,6.698121185E0,7.398706502E0
1.549988254E1,-9.982740784E-1,3.221301270E0,7.355703735E0,8.091953438E0
1.550990454E1,-1.307231598E0,3.305576019E0,8.410560150E0,9.130893128E0
1.551992554E1,-1.639540558E0,3.323388977E0,9.364526367E0,1.007111521E1
1.552994754E1,-1.856289825E0,3.348836060E0,9.791438599E0,1.051345731E1
1.553996954E1,-1.963167572E0,3.406765594E0,9.767338715E0,1.052905429E1
1.554999154E1,-2.009271698E0,3.436403961E0,9.554032288E0,1.035014869E1
1.556001254E1,-1.977986755E0,3.448977814E0,9.278006287E0,1.009402200E1
1.557003454E1,-1.862127686E0,3.424578552E0,8.920848999E0,9.735337932E0
1.558005654E1,-1.706451416E0,3.378624115E0,8.528664551E0,9.330873291E0
1.559007854E1,-1.526076508E0,3.294199677E0,8.198151855E0,8.966066856E0
1.560009954E1,-1.294208679E0,3.175496521E0,7.859555969E0,8.575043690E0
1.561012154E1,-1.010398865E0,3.063978424E0,7.588918762E0,8.246245062E0
1.562014354E1,-7.640112305E-1,2.902613983E0,7.389982452E0,7.976259884E0
1.563016454E1,-5.911207581E-1,2.826123047E0,7.200027466E0,7.757370091E0
1.564018654E1,-4.819976807E-1,2.860102386E0,7.030879211E0,7.605640664E0
1.565020854E1,-4.191284180E-1,2.969375153E0,6.958280182E0,7.576973045E0
1.566023054E1,-4.372407532E-1,3.062032471E0,6.902146912E0,7.563521291E0
1.567025154E1,-5.676196289E-1,3.200045471E0,6.902146912E0,7.629031069E0
1.568027354E1,-7.078779602E-1,3.382066956E0,6.963818665E0,7.773946134E0
1.569029554E1,-8.583151245E-1,3.509452057E0,7.095993805E0,7.962793899E0
1.570031754E1,-1.083446960E0,3.575315094E0,7.425458679E0,8.312290414E0
1.571033854E1,-1.338965607E0,3.629502411E0,7.809709625E0,8.715370392E0
1.572036054E1,-1.563199310E0,3.663032684E0,8.191415863E0,9.108276147E0
1.573038254E1,-1.737436981E0,3.626358948E0,8.673114166E0,9.559920283E0
1.574040354E1,-1.808389435E0,3.525768127E0,9.021739197E0,9.853582667E0
1.575042554E1,-1.767973480E0,3.442241821E0,9.271719360E0,1.004686712E1
1.576044754E1,-1.685794373E0,3.374881897E0,9.341623993E0,1.007460517E1
1.577046942E1,-1.602118378E0,3.354524231E0,9.221723328E0,9.942826421E0
1.578049042E1,-1.488804016E0,3.365301819E0,9.009464722E0,9.732021799E0
1.579051242E1,-1.381776581E0,3.412902832E0,8.791667633E0,9.531559790E0
1.580053442E1,-1.358574829E0,3.451372833E0,8.704548798E0,9.461863969E0
1.581055642E1,-1.369651794E0,3.550017700E0,8.828940125E0,9.613987489E0
1.582057742E1,-1.386716309E0,3.796704712E0,8.917705536E0,9.790986713E0
1.583059942E1,-1.408271484E0,3.979175262E0,8.978778534E0,9.921468052E0
1.584062142E1,-1.427281952E0,4.020189972E0,9.036857758E0,9.993190647E0
1.585064242E1,-1.428928528E0,4.078269196E0,9.084009705E0,1.005949048E1
1.586066442E1,-1.505718842E0,4.121678925E0,9.081015930E0,1.008564706E1
1.587068642E1,-1.651365967E0,4.179009705E0,9.181157684E0,1.022178008E1
1.588070842E1,-1.748513947E0,4.327201538E0,9.539063416E0,1.061959062E1
1.589072942E1,-1.816023560E0,4.450545044E0,9.942175140E0,1.104319425E1
1.590075142E1,-1.794468384E0,4.586013336E0,1.018631744E1,1.131426967E1
1.591077342E1,-1.679657135E0,4.609664154E0,1.042686722E1,1.152344617E1
1.592079442E1,-1.487157440E0,4.434228973E0,1.049048492E1,1.148583030E1
1.593081642E1,-1.243314514E0,4.169729004E0,1.064122147E1,1.149643707E1
1.594083842E1,-1.076860657E0,3.894750824E0,1.101753891E1,1.173519819E1
1.595086042E1,-1.007105713E0,3.597618713E0,1.159713364E1,1.218403180E1
1.596088142E1,-9.349557495E-1,3.317401428E0,1.218885315E1,1.266678474E1
1.597090342E1,-8.786727905E-1,3.002007294E0,1.264181122E1,1.302303745E1
1.598092542E1,-8.328680420E-1,2.720891876E0,1.282562897E1,1.313749140E1
1.599094742E1,-9.017248535E-1,2.477797394E0,1.268971161E1,1.296076265E1
1.600096842E1,-1.044527893E0,2.455044708E0,1.218241653E1,1.247114893E1
1.601099042E1,-1.209035797E0,2.652484131E0,1.142005188E1,1.178622181E1
1.602101242E1,-1.389410706E0,2.781964874E0,1.069106781E1,1.113412419E1
1.603103342E1,-1.519939270E0,2.837948456E0,1.029035110E1,1.078218404E1
1.604105542E1,-1.483115845E0,3.053051147E0,1.007704468E1,1.063332419E1
1.605107742E1,-1.285077667E0,3.289259949E0,9.902956696E0,1.051376274E1
1.606109942E1,-9.837542725E-1,3.362308044E0,9.536219330E0,1.015934875E1
1.607112042E1,-6.688092041E-1,3.259022827E0,8.864266663E0,9.468038815E0
1.608114242E1,-3.899391174E-1,3.193459167E0,8.130043488E0,8.743445607E0
1.609116442E1,-2.703378296E-1,3.224295044E0,7.575596466E0,8.237646684E0
1.610118642E1,-3.589535522E-1,3.425776062E0,7.292984161E0,8.065507254E0
1.611120742E1,-5.192701721E-1,3.681145020E0,7.323969727E0,8.213464721E0
1.612122942E1,-7.343728638E-1,3.879033508E0,7.554939423E0,8.524277925E0
1.613125142E1,-8.460406494E-1,4.001179504E0,7.948321381E0,8.938737885E0
1.614127242E1,-8.430468750E-1,3.890858917E0,8.195906525E0,9.111662577E0
1.615129442E1,-7.188052368E-1,3.618724823E0,8.240064697E0,9.028317480E0
1.616131642E1,-5.132826233E-1,3.252137146E0,8.112829285E0,8.755447109E0
1.617133842E1,-3.061134338E-1,2.930755463E0,7.929161224E0,8.458997029E0
1.618135942E1,-1.790277100E-1,2.645299072E0,7.653135223E0,8.099391141E0
1.619138142E1,-1.511856079E-1,2.447410583E0,7.426656189E0,7.820990845E0
1.620140342E1,-2.260299683E-1,2.471660156E0,7.437284088E0,7.840496673E0
1.621142542E1,-3.490740967E-1,2.652035065E0,7.551945648E0,8.011680584E0
1.622144642E1,-4.737648010E-1,2.840493164E0,7.696395264E0,8.217502939E0
1.623146842E1,-5.987548828E-1,3.039429474E0,7.676486664E0,8.277988067E0
1.624149042E1,-6.195616150E-1,3.254532166E0,7.592960358E0,8.284255139E0
1.625151142E1,-6.102809143E-1,3.391347656E0,7.467371521E0,8.224069501E0
1.626153342E1,-6.116281128E-1,3.387156372E0,7.383695526E0,8.146525447E0
1.627155542E1,-5.592370605E-1,3.394790497E0,7.434589691E0,8.192098173E0
1.628157742E1,-4.363426208E-1,3.451522522E0,7.443421326E0,8.216320565E0
1.629159842E1,-3.944297791E-1,3.439248047E0,7.547155609E0,8.303225865E0
1.630162042E1,-3.797602844E-1,3.402574310E0,7.737260284E0,8.460905774E0
1.631164242E1,-4.016148376E-1,3.449576569E0,7.907156982E0,8.636203131E0
1.632166342E1,-4.981640625E-1,3.544179840E0,8.035440216E0,8.796458244E0
1.633168542E1,-6.514453125E-1,3.647165680E0,8.209827576E0,9.007078734E0
1.634170742E1,-7.661068726E-1,3.784579926E0,8.388705597E0,9.234735868E0
1.635172942E1,-7.497908020E-1,3.902235260E0,8.505013733E0,9.387485546E0
1.636175042E1,-6.780899048E-1,3.923640747E0,8.639733582E0,9.513136128E0
1.637177242E1,-6.170169067E-1,3.923341370E0,8.693322144E0,9.557571201E0
1.638179442E1,-5.882766724E-1,3.921545105E0,8.613837433E0,9.482762297E0
1.639181642E1,-6.107299805E-1,3.940555573E0,8.510552216E0,9.398429036E0
1.640183742E1,-6.586303711E-1,4.086502075E0,8.393795013E0,9.358904204E0
1.641185942E1,-7.415579224E-1,4.184248810E0,8.489446106E0,9.493605292E0
1.642188142E1,-8.698411560E-1,4.250111847E0,8.863218842E0,9.867964460E0
1.643190242E1,-1.006506958E0,4.351750488E0,9.382039948E0,1.039102796E1
1.644192442E1,-1.133442993E0,4.349355469E0,9.781259766E0,1.076450782E1
1.645194642E1,-1.308878174E0,4.310885468E0,1.004291565E1,1.100713634E1
1.646196842E1,-1.440753937E0,4.211941223E0,1.016685791E1,1.109870355E1
1.647198942E1,-1.428180084E0,4.154760132E0,1.022164398E1,1.112581394E1
1.648201142E1,-1.402433624E0,4.126169586E0,1.021924896E1,1.110968698E1
1.649203342E1,-1.455273743E0,4.197122040E0,1.016790573E1,1.109594349E1
1.650205442E1,-1.424737244E0,4.359534302E0,1.014934433E1,1.113753141E1
1.651207642E1,-1.296753387E0,4.421655121E0,1.000938538E1,1.101909247E1
1.652209842E1,-1.257834320E0,4.361779633E0,9.877958679E0,1.087112397E1
1.653212042E1,-1.349443817E0,4.374802551E0,9.931247864E0,1.093570209E1
1.654214142E1,-1.599274292E0,4.463418274E0,1.030771500E1,1.134587015E1
1.655216342E1,-1.837878113E0,4.502337341E0,1.100197128E1,1.202880749E1
1.656218542E1,-1.988464966E0,4.419709167E0,1.192076065E1,1.286826937E1
1.657220742E1,-2.121089172E0,4.007017365E0,1.278865585E1,1.356852704E1
1.658222842E1,-2.226020966E0,3.369792480E0,1.342692856E1,1.402116547E1
1.659225042E1,-2.208208008E0,2.816093903E0,1.372630600E1,1.418513461E1
1.660227242E1,-1.953737183E0,2.509830780E0,1.351314926E1,1.388241847E1
1.661229342E1,-1.581611023E0,2.314037933E0,1.251023483E1,1.282038379E1
1.662231542E1,-1.203796692E0,2.149979095E0,1.110825027E1,1.137825825E1
1.663233742E1,-8.470884705E-1,2.189347229E0,9.761051788E0,1.003936911E1
1.664235942E1,-5.906716919E-1,2.275418243E0,8.581804047E0,8.897965044E0
1.665238042E1,-4.516108704E-1,2.379751282E0,7.873776398E0,8.237931980E0
1.666240242E1,-4.399351501E-1,2.388133850E0,7.794740753E0,8.164233561E0
1.667242442E1,-5.535488892E-1,2.318827972E0,8.187374268E0,8.527395671E0
1.668244542E1,-7.080276489E-1,2.295177155E0,8.660240936E0,8.987152741E0
1.669246742E1,-9.080117798E-1,2.305655365E0,9.016799469E0,9.351107139E0
1.670248942E1,-1.114731903E0,2.370919647E0,9.171278229E0,9.538146127E0
1.671251142E1,-1.283131714E0,2.442919922E0,8.969497833E0,9.384358056E0
1.672253242E1,-1.378782806E0,2.407593384E0,8.688382416E0,9.120610557E0
1.673255442E1,-1.350491638E0,2.395767975E0,8.610095215E0,9.038654295E0
1.674257642E1,-1.351838837E0,2.456840973E0,8.628656616E0,9.072885473E0
1.675259842E1,-1.376238098E0,2.592009888E0,8.441246338E0,8.936844314E0
1.676261942E1,-1.375190277E0,2.824775848E0,8.115523682E0,8.702426760E0
1.677264142E1,-1.449136505E0,2.984493713E0,7.924071808E0,8.590582830E0
1.678266342E1,-1.502874756E0,3.119812317E0,7.707921295E0,8.450083557E0
