"Time (s)","Acceleration x (m/s^2)","Acceleration y (m/s^2)","Acceleration z (m/s^2)","Absolute acceleration (m/s^2)"
3.621541662E-3,-9.286688232E-1,4.157604218E0,9.512269135E0,1.042263703E1
1.364454167E-2,-6.896159363E-1,4.148323517E0,9.214837646E0,1.012903702E1
2.366654167E-2,-5.536985779E-1,3.933520203E0,8.824150085E0,9.677023718E0
3.368954168E-2,-7.090754700E-1,4.273163910E0,8.823102264E0,9.829031050E0
4.371154166E-2,-7.845185852E-1,4.369413757E0,8.777297516E0,9.836066169E0
5.373454167E-2,-8.050259399E-1,4.221970367E0,8.881331177E0,9.866668334E0
6.375654167E-2,-6.123765564E-1,4.110152893E0,8.824150085E0,9.753665290E0
7.377954168E-2,-5.487588501E-1,3.933370514E0,8.624764709E0,9.495214909E0
8.380154168E-2,-5.514532471E-1,3.977977753E0,8.570577393E0,9.464840439E0
9.382454166E-2,-6.521937561E-1,4.085304565E0,8.233029327E0,9.214002496E0
1.038465417E-1,-6.795867920E-1,4.135749664E0,8.268804932E0,9.270350505E0
1.138659167E-1,-6.792874146E-1,4.255201263E0,8.382718048E0,9.425398191E0
1.238879167E-1,-8.340655518E-1,4.424499207E0,8.616681519E0,9.722091286E0
1.339109167E-1,-1.045126648E0,4.403991852E0,8.992998962E0,1.006784308E1
1.439329167E-1,-1.141077118E0,4.423002319E0,9.317973175E0,1.037736145E1
1.539559167E-1,-1.183738403E0,4.486620026E0,9.579629059E0,1.064426084E1
1.639779167E-1,-1.141077118E0,4.457430725E0,9.715247040E0,1.074973352E1
1.740009167E-1,-1.101559296E0,4.341871033E0,9.732161865E0,1.071355457E1
1.840229167E-1,-1.063238983E0,4.323309631E0,9.695937195E0,1.066923996E1
1.940459167E-1,-1.053060150E0,4.279600525E0,9.645342407E0,1.060455310E1
2.040679167E-1,-1.020727386E0,4.178410950E0,9.616751862E0,1.053484309E1
2.140909167E-1,-9.966275024E-1,4.129013672E0,9.591155090E0,1.048962708E1
2.241129167E-1,-9.596543884E-1,3.966302032E0,9.495653687E0,1.033537262E1
2.341359167E-1,-8.628057861E-1,3.855083313E0,9.308991852E0,1.011253828E1
2.441579167E-1,-7.737409973E-1,3.821103973E0,9.188342743E0,9.981240057E0
2.541809167E-1,-7.454498291E-1,3.786974945E0,9.178612976E0,9.957098515E0
2.642029167E-1,-7.349716187E-1,3.760779419E0,9.244625702E0,1.000733478E1
2.742259167E-1,-7.397616577E-1,3.722908173E0,9.400002594E0,1.013742282E1
2.842479167E-1,-7.339237976E-1,3.614683228E0,9.580227814E0,1.026573641E1
2.942709167E-1,-6.945556641E-1,3.613635406E0,9.617500305E0,1.029743077E1
3.042929167E-1,-6.435118103E-1,3.676804047E0,9.527836761E0,1.023292083E1
3.143159167E-1,-5.845344543E-1,3.667673035E0,9.391470337E0,1.009916933E1
3.243379167E-1,-4.953199768E-1,3.622167664E0,9.272318115E0,9.967011773E0
3.343609167E-1,-4.032614136E-1,3.596121826E0,9.198820953E0,9.884989575E0
3.443829167E-1,-3.245251465E-1,3.630400543E0,9.069639587E0,9.774634874E0
3.544059167E-1,-2.276765442E-1,3.685186615E0,8.922046509E0,9.655845427E0
3.644279167E-1,-1.600172424E-1,3.685785370E0,8.805888062E0,9.547475261E0
3.744509167E-1,-1.106199646E-1,3.692820740E0,8.710236969E0,9.461363002E0
3.844729167E-1,-1.169068909E-1,3.759132843E0,8.669072571E0,9.449738948E0
3.944959167E-1,-1.695973206E-1,3.929328918E0,8.660989380E0,9.512156750E0
4.045179167E-1,-1.438508606E-1,4.045637054E0,8.539591827E0,9.450529129E0
4.145409167E-1,-1.251397705E-1,4.098327484E0,8.209528198E0,9.176508125E0
4.245629167E-1,-2.257305908E-1,3.953877869E0,7.905660095E0,8.842147140E0
4.345859167E-1,-3.013233948E-1,3.474275208E0,7.837252350E0,8.578106341E0
4.446079167E-1,-2.360591125E-1,3.120411072E0,7.729775848E0,8.339192037E0
4.546309167E-1,-1.944456482E-1,3.007994843E0,7.632328491E0,8.205990512E0
4.646529167E-1,-2.323168945E-1,3.175047455E0,7.600295105E0,8.240108201E0
4.746759167E-1,-3.370989990E-1,3.369493103E0,7.578590240E0,8.300731868E0
4.846979167E-1,-4.547543335E-1,3.482059021E0,7.639663239E0,8.408090802E0
4.947209167E-1,-5.616320801E-1,3.569926300E0,7.762707367E0,8.562676570E0
5.047429167E-1,-6.023474121E-1,3.563789062E0,7.916437683E0,8.702493923E0
5.147659167E-1,-4.977149963E-1,3.682043152E0,8.073461151E0,8.887403274E0
5.247879167E-1,-3.909869385E-1,3.807931366E0,8.192912750E0,9.043065377E0
5.348109167E-1,-4.176315308E-1,3.765868835E0,8.404422913E0,9.219029704E0
5.448329167E-1,-4.989125061E-1,3.694766693E0,8.732690277E0,9.495266930E0
5.548559167E-1,-5.382806396E-1,3.749253387E0,8.920250244E0,9.691104758E0
5.648779167E-1,-5.081932068E-1,3.788471832E0,8.990603943E0,9.769428766E0
5.749009167E-1,-4.188290405E-1,3.797752533E0,8.967402191E0,9.747442953E0
5.849229167E-1,-3.564088440E-1,3.764371948E0,8.931925964E0,9.699320845E0
5.949459167E-1,-3.137475586E-1,3.736829224E0,8.918603668E0,9.674906799E0
6.049679167E-1,-2.499801636E-1,3.739074554E0,8.915759583E0,9.671294512E0
6.149909167E-1,-2.270777893E-1,3.684438171E0,8.858877869E0,9.597206159E0
6.250129167E-1,-2.598596191E-1,3.555107117E0,8.800349579E0,9.494865262E0
6.350359167E-1,-2.981799316E-1,3.502117310E0,8.916508026E0,9.584250221E0
6.450579167E-1,-3.984713745E-1,3.523971863E0,9.215436401E0,9.874280996E0
6.550809167E-1,-4.697232056E-1,3.648363190E0,9.521699524E0,1.020754406E1
6.651029167E-1,-5.792953491E-1,3.678151245E0,9.683213654E0,1.037444005E1
6.751259167E-1,-7.809260559E-1,3.505859528E0,9.550888824E0,1.020393913E1
6.851479167E-1,-7.912545776E-1,3.431613922E0,9.308692474E0,9.952578234E0
6.951709167E-1,-5.635780334E-1,3.511248322E0,8.975485382E0,9.654316279E0
7.051929167E-1,-3.936813354E-1,3.611539764E0,8.769064636E0,9.491822747E0
7.152159167E-1,-3.276686096E-1,3.671864319E0,8.606352997E0,9.362652733E0
7.252379167E-1,-2.811154175E-1,3.643722839E0,8.308173065E0,9.076424499E0
7.352609167E-1,-2.809657288E-1,3.463647308E0,7.901169434E0,8.631585766E0
7.452829167E-1,-2.911445618E-1,3.337010651E0,7.534881134E0,8.245898310E0
7.553059167E-1,-5.222639465E-1,3.372935944E0,7.245383148E0,8.009059462E0
7.653279167E-1,-7.854167175E-1,3.497476959E0,6.693031769E0,7.592489628E0
7.753509167E-1,-4.373904419E-1,3.392096100E0,6.413862305E0,7.268786420E0
7.853729167E-1,-8.776249695E-1,3.541335754E0,7.515122223E0,8.353941976E0
7.953959167E-1,-1.819017334E0,3.450923767E0,8.232729950E0,9.110188875E0
8.054179167E-1,-2.171234894E0,3.369493103E0,8.478069763E0,9.377921499E0
8.154409167E-1,-2.152224426E0,3.471431122E0,8.749156036E0,9.655601243E0
8.254629167E-1,-2.001487885E0,3.485052795E0,9.138646088E0,9.983306018E0
8.354859167E-1,-1.731299744E0,3.395538940E0,9.064400482E0,9.833129695E0
8.455079167E-1,-1.449585571E0,3.835025024E0,8.975036316E0,9.867116708E0
8.555309167E-1,-1.089135132E0,4.115092621E0,8.333470459E0,9.357720476E0
8.655529167E-1,-6.655160522E-1,3.881578217E0,7.306755524E0,8.300496211E0
8.755759167E-1,-5.255570984E-1,3.575165405E0,6.411018219E0,7.359291579E0
8.855979167E-1,-7.267387390E-1,2.988984375E0,5.742957458E0,6.514885813E0
8.956209167E-1,-1.190923462E0,2.952011261E0,5.884413300E0,6.690215920E0
9.056429167E-1,-1.925745392E0,4.010909271E0,7.189399567E0,8.454782944E0
9.156659167E-1,-2.670446777E0,4.444557495E0,9.014853516E0,1.039966159E1
9.256879167E-1,-4.157454529E0,2.642904053E0,8.013585663E0,9.406748916E0
9.357109167E-1,-5.452860718E0,-1.408570862E-1,6.385421448E0,8.398043688E0
9.457329167E-1,-5.392236786E0,-1.076710968E0,4.400848389E0,7.042939060E0
9.557559167E-1,-4.921615448E0,-1.174008636E0,2.281705170E0,5.550384976E0
9.657779167E-1,-4.836592255E0,-1.716929626E0,-5.827381897E-1,5.165274027E0
9.758009167E-1,-4.823868713E0,-1.893262939E0,-1.760039978E0,5.472832415E0
9.858229167E-1,-4.276606750E0,-4.954696655E-1,-1.988764343E0,4.742366403E0
9.958459167E-1,-4.574487305E0,1.645977173E0,-1.131047974E0,4.991437115E0
1.005867917E0,-4.843178558E0,3.126248932E0,8.056246948E-1,5.820553417E0
1.015890917E0,-5.423222351E0,3.351680145E0,2.434687042E0,6.824426823E0
1.025912917E0,-6.953041077E0,2.622995453E0,3.986809387E0,8.433239855E0
1.035935917E0,-8.490643616E0,1.109492798E0,5.709576874E0,1.029180603E1
1.045957917E0,-9.416767731E0,-1.723815308E0,5.820795593E0,1.120395979E1
1.055980917E0,-7.677085419E0,-3.715872803E0,1.352138214E0,8.635602409E0
1.066002917E0,-4.574786682E0,-3.375330963E0,-3.014730835E-1,5.693190522E0
1.076025917E0,-3.411855011E0,-3.191064148E0,1.415905609E0,4.881437668E0
1.086047917E0,-5.842949524E0,-5.087919617E0,2.790646820E0,8.234967810E0
1.096070917E0,-9.289532318E0,-5.297932892E0,4.670288086E-1,1.070428043E1
1.106093583E0,-1.096619568E1,-3.402424622E0,2.832709351E0,1.182616520E1
1.116116583E0,-1.291933411E1,-1.206790466E0,5.160219269E0,1.396400372E1
1.126138583E0,-1.482082993E1,3.153941345E-1,6.174809418E0,1.605879026E1
1.136161583E0,-1.640468628E1,2.065704346E-1,7.319628754E0,1.796478133E1
1.146183583E0,-1.648072815E1,1.872605896E-1,7.588170319E0,1.814469056E1
1.156206583E0,-1.586041809E1,6.406677246E-2,6.669231262E0,1.720568546E1
1.166228583E0,-1.484373230E1,-4.833448792E-1,5.598058777E0,1.587161847E1
1.176251583E0,-1.480631012E1,-1.208287354E0,4.389472046E0,1.549045650E1
1.186273583E0,-1.552257065E1,-1.038989410E0,3.934268646E0,1.604706105E1
1.196296583E0,-1.688728271E1,2.128573608E-1,4.743485870E0,1.754212883E1
1.206318583E0,-1.912453033E1,1.622026978E0,5.568869476E0,1.998476768E1
1.216341583E0,-2.056827805E1,3.150648193E0,6.003415833E0,2.165690762E1
1.226363583E0,-2.069416626E1,3.959266663E0,5.701493683E0,2.182730721E1
1.236386583E0,-2.031994446E1,3.192860413E0,5.011278992E0,2.117090970E1
1.246408583E0,-1.956970459E1,2.389780426E0,3.959865417E0,2.010882698E1
1.256431583E0,-1.840871887E1,2.543959808E0,3.159330139E0,1.885030581E1
1.266453583E0,-1.778601379E1,2.933150482E0,2.664758606E0,1.822214578E1
1.276476583E0,-1.794318695E1,3.089275818E0,2.064806213E0,1.832389172E1
1.286498583E0,-1.822594894E1,3.573818207E0,1.297651520E0,1.861830527E1
1.296521583E0,-1.830333801E1,3.975732422E0,8.012837219E-1,1.874728477E1
1.306543583E0,-1.839225311E1,4.710704041E0,6.394702148E-1,1.899670048E1
1.316566583E0,-1.811847244E1,5.295238495E0,5.876779175E-1,1.888554896E1
1.326588583E0,-1.777957718E1,5.305117950E0,5.007087708E-1,1.856093614E1
1.336611583E0,-1.722468109E1,4.783452759E0,3.622467041E-1,1.788022040E1
1.346633583E0,-1.599289261E1,4.149221649E0,2.619552612E-1,1.652444477E1
1.356656583E0,-1.487995697E1,3.692371674E0,6.092330933E-2,1.533135479E1
1.366678583E0,-1.424168427E1,3.611689453E0,9.580078125E-2,1.469282305E1
1.376701583E0,-1.418061127E1,4.004173279E0,-6.765930176E-2,1.473525423E1
1.386723583E0,-1.427506485E1,4.339026947E0,-9.490264893E-2,1.492024255E1
1.396746583E0,-1.437894882E1,4.744982758E0,-4.502636719E-1,1.514832558E1
1.406768583E0,-1.386806122E1,4.609065399E0,-9.291178894E-1,1.464342398E1
1.416790583E0,-1.292217819E1,4.121978302E0,-1.191522217E0,1.361591420E1
1.426813583E0,-1.226115280E1,3.683989105E0,-2.041305084E0,1.296435769E1
1.436835583E0,-1.190070236E1,3.567231903E0,-2.621498566E0,1.269740583E1
1.446858583E0,-1.141601028E1,3.463048553E0,-3.151845703E0,1.233904889E1
1.456880583E0,-1.078073135E1,3.182831268E0,-3.101250916E0,1.166071784E1
1.466903583E0,-1.030008087E1,2.701282654E0,-2.793939972E0,1.100884619E1
1.476925583E0,-9.137149200E0,1.856140137E-1,-4.187991028E0,1.005292082E1
1.486948583E0,-6.830296326E0,-4.129762115E0,-6.622827759E0,1.037158284E1
1.496970583E0,-6.294261017E0,-5.615123291E0,-7.047644348E0,1.099166148E1
1.506993583E0,-7.833809509E0,-1.496288452E0,-5.198389893E0,9.520016178E0
1.517015583E0,-9.928703156E0,4.654720459E0,-3.945944366E0,1.165401415E1
1.527038583E0,-9.401798859E0,9.506730652E-1,-2.940634918E0,9.896713332E0
1.537060583E0,-8.291856995E0,-2.401456146E0,-3.135080566E0,9.184259045E0
1.547083583E0,-7.838000793E0,-2.042951660E0,-1.944157104E0,8.329925256E0
1.557105583E0,-8.016878815E0,-3.808380432E0,-1.056053925E0,8.938084657E0
1.567128583E0,-7.905061340E0,-3.885170746E0,-7.137158203E-1,8.837077390E0
1.577150583E0,-8.197253723E0,-2.786006470E0,2.520758057E-1,8.661428454E0
1.587173583E0,-8.776249695E0,-3.271147614E0,1.135538635E0,9.434639018E0
1.597195583E0,-8.868607635E0,-3.788022766E0,1.623224487E0,9.779375011E0
1.607218583E0,-8.542136536E0,-4.790338440E0,1.057251434E0,9.850544125E0
1.617240583E0,-7.577692108E0,-6.458619232E0,3.335064697E-1,9.962249075E0
1.627263583E0,-7.013964386E0,-7.972570953E0,3.728746033E-1,1.062528209E1
1.637285583E0,-7.178621979E0,-3.116668854E0,-2.529739380E-1,7.830085189E0
1.647308583E0,-7.355703735E0,-1.743873596E0,4.317022705E-1,7.571911213E0
1.657330583E0,-8.084687805E0,-6.883435822E0,1.033899994E0,1.066830890E1
1.667353583E0,-8.385113068E0,-9.807904358E0,1.243164825E0,1.296343195E1
1.677375583E0,-8.850195923E0,-9.966873779E0,1.265169067E0,1.338899524E1
1.687398583E0,-9.999206543E0,-7.865094452E0,1.375190277E0,1.279589741E1
1.697420583E0,-1.076950470E1,-5.861361237E0,1.998194733E0,1.242298552E1
1.707443583E0,-1.077758789E1,-4.327051849E0,3.707340546E0,1.219115058E1
1.717465583E0,-1.164009430E1,-2.815644836E0,4.726121979E0,1.287462155E1
1.727488583E0,-1.270587799E1,-3.086282043E0,1.522483978E0,1.316367843E1
1.737510583E0,-1.155028107E1,-3.859723663E0,-1.348395996E0,1.225253571E1
1.747533583E0,-1.061068497E1,-4.526137848E0,-2.276615753E0,1.175821154E1
1.757555583E0,-9.854457550E0,-5.081782379E0,-2.543510742E0,1.137560076E1
1.767578583E0,-8.864416351E0,-5.064867554E0,-2.517015839E0,1.051504300E1
1.777600583E0,-8.048313446E0,-4.459825745E0,-2.226020966E0,9.466813843E0
1.787623583E0,-7.853418732E0,-3.908522186E0,-2.178569641E0,9.038744223E0
1.797645583E0,-7.973618774E0,-3.733386383E0,-2.372715912E0,9.118473065E0
1.807668583E0,-8.446335754E0,-4.213587799E0,-1.086590424E0,9.501346671E0
1.817690583E0,-8.356223145E0,-4.365970917E0,1.618883514E0,9.566031106E0
1.827713583E0,-7.980803833E0,-4.204756165E0,2.554438019E0,9.375412408E0
1.837735583E0,-7.648195496E0,-3.686833191E0,-2.744393005E0,8.922966227E0
1.847758583E0,-5.961952057E0,-2.202968903E0,-6.705455933E0,9.239106211E0
1.857780583E0,-5.155129852E0,-3.019670563E0,-8.633147278E0,1.049880974E1
1.867802583E0,-3.534001007E0,-3.899241486E0,-6.610702972E0,8.449534962E0
1.877825583E0,-1.944905548E0,-3.670217743E0,-4.250411224E0,5.942991793E0
1.887848583E0,-2.326013031E0,-4.166136475E0,-3.236569519E0,5.765623296E0
1.897870583E0,-4.944218445E0,-6.268514557E0,1.429976349E0,8.110758481E0
1.907892583E0,-5.206772461E0,-6.613996124E0,1.735491028E0,8.594611876E0
1.917915583E0,-4.726271667E0,-6.063740387E0,5.511538696E-1,7.707811748E0
1.927937583E0,-5.435197449E0,-6.670578461E0,7.373666382E-1,8.636069584E0
1.937960583E0,-4.507426758E0,-5.783523102E0,-3.573069763E-1,7.341233120E0
1.947982583E0,-3.279679871E0,-4.282893677E0,4.921765137E-1,5.416799426E0
1.958005583E0,-2.924917603E0,-3.148253174E0,1.718127136E0,4.628023540E0
1.968027583E0,-2.821632385E0,-2.664010162E0,2.625989227E0,4.685550009E0
1.978050583E0,-2.709665222E0,-3.067570953E0,2.857707367E0,4.991870247E0
1.988072583E0,-2.512225800E0,-4.477189636E0,1.950144653E0,5.491772908E0
1.998095583E0,-1.938169556E0,-7.113058319E0,1.441502380E0,7.511992345E0
2.008117583E0,-1.053359528E0,-1.173035660E1,1.409019928E0,1.186154161E1
2.018140583E0,6.152206421E-2,-1.756896515E1,1.121318207E0,1.760481968E1
2.028162583E0,1.218615875E0,-2.077110626E1,6.491999817E-1,2.081694840E1
2.038185583E0,5.156477051E0,-2.073727661E1,1.845512238E0,2.144830558E1
2.048207583E0,1.070409073E1,-2.067575455E1,1.263073425E0,2.331651215E1
2.058230583E0,1.012165192E1,-2.191921875E1,3.285667419E-1,2.414555744E1
2.068252583E0,7.980654144E0,-2.199511093E1,-1.000669098E0,2.341958762E1
2.078275583E0,6.536607056E0,-1.808359497E1,-3.590433655E0,1.956105449E1
2.088297583E0,4.726870422E0,-1.214858688E1,-2.957998810E0,1.336716964E1
2.098320583E0,3.069367218E0,-8.190817108E0,1.392105103E-2,8.747039146E0
2.108341917E0,2.468666382E0,-6.337221680E0,1.246457977E0,6.914358236E0
2.118364917E0,2.122885437E0,-5.791157227E0,1.415306854E0,6.328288718E0
2.128386917E0,1.685045929E0,-6.204148407E0,7.647596741E-1,6.474233128E0
2.138409917E0,1.175206146E0,-7.326364746E0,3.487747192E-2,7.420104199E0
2.148431917E0,8.023315430E-1,-8.676257629E0,-5.370831299E-1,8.729813322E0
2.158454917E0,6.652166748E-1,-9.919572144E0,-6.969506836E-1,9.966251301E0
2.168476917E0,5.966592407E-1,-1.053883438E1,-6.215075684E-1,1.057399187E1
2.178499917E0,5.923182678E-1,-1.042297531E1,-4.161346436E-1,1.044808228E1
2.188521917E0,6.752458191E-1,-1.008497818E1,-3.781137085E-1,1.011462860E1
2.198544917E0,8.780740356E-1,-9.805659027E0,-7.479945374E-1,9.873269914E0
2.208566917E0,1.382824402E0,-9.691147156E0,-9.270222473E-1,9.833102601E0
2.218588917E0,1.863923950E0,-9.723479919E0,-7.135661316E-1,9.926200223E0
2.228611917E0,2.171085205E0,-9.734407196E0,-4.751119995E-1,9.984889876E0
2.238633917E0,2.354453888E0,-9.759405212E0,-4.767585754E-1,1.005070853E1
2.248656917E0,2.424358521E0,-9.821376343E0,-5.668711853E-1,1.013204276E1
2.258678917E0,2.362686768E0,-9.915979614E0,-6.554869080E-1,1.021462694E1
2.268701917E0,2.268382874E0,-9.989626465E0,-7.680528259E-1,1.027268723E1
2.278723917E0,2.196083221E0,-1.001716919E1,-9.454339600E-1,1.029855842E1
2.288746917E0,2.177970886E0,-9.982591095E0,-1.132544861E0,1.027999708E1
2.298768917E0,2.247276764E0,-9.922565918E0,-1.314566345E0,1.025844296E1
2.308791917E0,2.318977661E0,-9.852361908E0,-1.460662537E0,1.022644746E1
2.318813917E0,2.389630737E0,-9.774823151E0,-1.589544525E0,1.018745083E1
2.328836917E0,2.414329376E0,-9.683213654E0,-1.779649200E0,1.013709841E1
2.338858917E0,2.387684784E0,-9.497150574E0,-2.078278198E0,1.001080156E1
2.348881917E0,2.285297699E0,-9.288783875E0,-2.436183929E0,9.871123724E0
2.358903917E0,2.061812439E0,-8.984766083E0,-2.562521210E0,9.567842340E0
2.368926917E0,1.767973480E0,-8.646319885E0,-2.346071320E0,9.131737426E0
2.378948917E0,1.351090393E0,-8.236023102E0,-2.062710571E0,8.597226104E0
2.388971917E0,7.908055115E-1,-7.525750122E0,-1.652563477E0,7.745531247E0
2.398993917E0,6.661148071E-2,-6.524332581E0,-1.091230774E0,6.615295709E0
2.409016917E0,-7.976911926E-1,-5.280718689E0,-6.730004883E-1,5.382864550E0
2.419038917E0,-1.296004944E0,-4.117787018E0,-1.049018555E0,4.442548668E0
2.429061917E0,-6.882687378E-1,-3.734733582E0,-3.021915894E0,4.853238553E0
2.439083917E0,8.704399109E-1,-4.145928497E0,-5.341791687E0,6.817706885E0
2.449106917E0,2.439177704E0,-4.677772522E0,-5.828878784E0,7.861740998E0
2.459128917E0,2.949616241E0,-4.640500031E0,-3.961511993E0,6.777023962E0
2.469150917E0,2.623594208E0,-3.976480865E0,-1.976040802E0,5.157556000E0
2.479173917E0,1.772613831E0,-2.716850281E0,-7.858657837E-2,3.244936223E0
2.489195917E0,1.007405090E0,-1.712738342E0,1.496438141E0,2.487501709E0
2.499218917E0,9.720785522E-1,-2.739602966E0,1.584754486E0,3.310862109E0
2.509240917E0,1.135538635E0,-6.089486847E0,-1.484912109E-1,6.196236575E0
2.519263917E0,8.884025574E-1,-9.536518707E0,-2.279459839E0,9.845323017E0
2.529285917E0,4.128414917E-1,-1.206251587E1,-4.909041595E0,1.302971284E1
2.539308917E0,-2.365081787E-1,-1.339609268E1,-7.309300232E0,1.526227719E1
2.549330917E0,-1.533710632E0,-1.353545288E1,-1.012240036E1,1.697126224E1
2.559353917E0,-2.756218414E0,-1.229258743E1,-1.293160858E1,1.805355772E1
2.569375917E0,-3.900738373E0,-1.075812836E1,-1.054317535E1,1.555993677E1
2.579398917E0,-4.786895599E0,-9.485923920E0,-6.449937286E0,1.242975515E1
2.589420917E0,-4.347708893E0,-8.495433655E0,-6.603218536E0,1.160506185E1
2.599443917E0,-2.339185638E0,-8.006849670E0,-8.224646759E0,1.171436065E1
2.609465917E0,-4.511618042E-1,-7.799830170E0,-6.561156006E0,1.020243431E1
2.619488917E0,6.050418091E-1,-8.067174225E0,-4.559368744E0,9.286184303E0
2.629510917E0,1.782044220E0,-8.457113342E0,-6.238127747E0,1.065892516E1
2.639533917E0,2.796185303E0,-8.601413269E0,-9.387578430E0,1.303570448E1
2.649555917E0,2.686164093E0,-8.784931641E0,-1.024275009E1,1.375879467E1
2.659578917E0,1.429078217E0,-9.580377502E0,-8.723559265E0,1.303558146E1
2.669600917E0,-3.495231628E-1,-1.043405228E1,-7.920329590E0,1.310432120E1
2.679622917E0,-2.148482208E0,-1.081501007E1,-8.392447815E0,1.385689716E1
2.689645917E0,-2.980901184E0,-1.073836945E1,-9.335636444E0,1.453796609E1
2.699667917E0,-3.511248322E0,-1.017164795E1,-1.099224152E1,1.538247900E1
2.709690917E0,-3.630101166E0,-1.021430923E1,-1.103145996E1,1.546618429E1
2.719712917E0,-3.664679260E0,-1.058823166E1,-1.064870590E1,1.545753736E1
2.729735917E0,-3.232527924E0,-1.105346420E1,-1.114552277E1,1.602657123E1
2.739757917E0,-2.483934631E0,-1.181014069E1,-1.283475998E1,1.761761669E1
2.749780917E0,-2.352208557E0,-1.351539459E1,-1.443418396E1,1.991342368E1
2.759802917E0,-2.193239136E0,-1.662607590E1,-1.482981125E1,2.238660312E1
2.769825917E0,-1.684596863E0,-2.080134338E1,-1.227267883E1,2.421058444E1
2.779847917E0,-7.821235657E-1,-2.466316269E1,-6.805747375E0,2.559690427E1
2.789870917E0,2.686912537E-1,-2.747356842E1,-1.908231812E0,2.754106943E1
2.799892917E0,1.057700500E0,-2.957070740E1,1.228944397E-1,2.958987275E1
2.809915917E0,1.398092651E0,-3.108690445E1,1.251397705E-1,3.111857888E1
2.819937917E0,1.629810791E0,-3.227663040E1,-4.983137512E-1,3.232159448E1
2.829960917E0,1.911225586E0,-3.243185760E1,-2.010169830E0,3.255025274E1
2.839982917E0,1.907333679E0,-3.081956039E1,-4.664450226E0,3.122883796E1
2.850005917E0,6.568341064E-1,-2.585767868E1,-4.979245605E0,2.634091617E1
2.860027917E0,-6.039939880E-1,-1.917901703E1,-2.469265137E0,1.934675097E1
2.870050917E0,-3.354524231E-1,-1.402747971E1,-7.467970276E-1,1.405134944E1
2.880072917E0,5.707630920E-1,-1.018482056E1,-4.116439819E-1,1.020910334E1
2.890094917E0,1.835782471E0,-7.302863617E0,-1.675914917E0,7.714311706E0
2.900117917E0,3.414549408E0,-5.157375183E0,-5.596412201E0,8.341312604E0
2.910139917E0,5.247787170E0,-2.389630737E0,-1.001043320E1,1.155241871E1
2.920162917E0,8.760532379E0,2.674937439E0,-1.508727585E1,1.765015893E1
2.930184917E0,1.011925690E1,6.751560059E0,-1.418076096E1,1.868359988E1
2.940207917E0,7.154222717E0,7.741301880E0,-8.047415314E0,1.326165716E1
2.950229917E0,5.427114258E0,7.076234894E0,-2.562072144E0,9.278517290E0
2.960252917E0,5.046755219E0,5.510341187E0,3.722758484E-1,7.481456244E0
2.970274917E0,4.367018738E0,1.358724518E0,1.957030334E0,4.974630911E0
2.980297917E0,3.314257965E0,-1.502874756E0,1.915117493E0,4.112251622E0
2.990319917E0,2.595452728E0,-2.454595642E0,1.858984222E0,4.027063070E0
3.000342917E0,2.067051544E0,-2.538271637E0,2.698887634E0,4.242584054E0
3.010364917E0,1.387165375E0,-1.834584961E0,3.378624115E0,4.087178815E0
3.020387917E0,5.933660889E-1,-6.753955078E-1,3.178041229E0,3.302754678E0
3.030409917E0,-8.262817383E-2,-3.592529297E-3,1.967358856E0,1.969096542E0
3.040432917E0,-7.533833313E-1,2.511776733E-1,1.415755920E0,1.623281089E0
3.050454917E0,-9.672885132E-1,2.625540161E-1,2.084565125E0,2.313005283E0
3.060476917E0,-1.084943848E0,3.582051086E-1,2.015408936E0,2.316740648E0
3.070499917E0,-1.272204437E0,4.153862000E-1,1.836231537E0,2.272178708E0
3.080521917E0,-1.260229340E0,4.670288086E-1,1.464404755E0,1.987655700E0
3.090544917E0,-1.119521942E0,5.093907166E-1,9.789642334E-1,1.571998490E0
3.100566917E0,-1.057401123E0,5.477110291E-1,6.999444580E-1,1.381306176E0
3.110590667E0,-1.031504974E0,6.045927429E-1,6.589297485E-1,1.365182519E0
3.120612667E0,-9.936337280E-1,6.351292419E-1,7.256909180E-1,1.384674853E0
3.130635667E0,-9.512718201E-1,6.471043396E-1,8.261320496E-1,1.416388458E0
3.140657667E0,-9.722282410E-1,6.381230164E-1,9.952803040E-1,1.530689916E0
3.150680667E0,-9.627978516E-1,5.921685791E-1,1.122665405E0,1.593116738E0
3.160702667E0,-9.339079285E-1,5.318440247E-1,1.151555328E0,1.575157694E0
3.170725667E0,-9.045689392E-1,4.587959290E-1,1.117426300E0,1.509099137E0
3.180747667E0,-9.012757874E-1,4.141886902E-1,9.271719360E-1,1.357754807E0
3.190770667E0,-9.042695618E-1,3.784130859E-1,6.382727051E-1,1.169740121E0
3.200792667E0,-8.735833740E-1,3.308120728E-1,3.297642517E-1,9.906205129E-1
3.210814667E0,-8.134085083E-1,3.219804382E-1,-5.029541016E-2,8.762616232E-1
3.220837667E0,-7.753875732E-1,3.215313721E-1,-4.646337891E-1,9.594231965E-1
3.230859667E0,-7.574249268E-1,3.516188049E-1,-9.458830261E-1,1.261753939E0
3.240882667E0,-7.875123596E-1,3.767665100E-1,-1.488504639E0,1.725623012E0
3.250904667E0,-8.589138794E-1,3.104544067E-1,-2.067350922E0,2.260100623E0
3.260927667E0,-9.604028320E-1,1.495390320E-1,-2.730471954E0,2.898312029E0
3.270949667E0,-1.086141357E0,-1.350192261E-1,-3.417992249E0,3.588955872E0
3.280972667E0,-1.223555603E0,-7.415579224E-1,-3.586691437E0,3.861521970E0
3.290994667E0,-1.115180969E0,-1.439556427E0,-4.007765808E0,4.402060662E0
3.301017667E0,-8.439450073E-1,-1.942959595E0,-4.922363892E0,5.358824633E0
3.311039667E0,-5.285508728E-1,-2.478545837E0,-5.308411102E0,5.882328104E0
3.321062667E0,3.930825806E-1,-3.507206726E0,-7.274572449E0,8.085444777E0
3.331084667E0,3.130440216E0,-5.889353027E0,-1.401400772E1,1.552019805E1
3.341107667E0,3.070564728E0,-5.075196075E0,-1.361957794E1,1.485526460E1
3.351129667E0,2.515518951E0,-4.969216461E0,-1.286993683E1,1.402341691E1
3.361151667E0,5.620811462E-1,-5.437891846E0,-9.493408356E0,1.095497171E1
3.371174667E0,-3.055745544E0,-6.798861694E0,1.521436157E0,7.607684875E0
3.381196667E0,-3.497626648E0,-1.274030640E1,5.202730865E0,1.419919743E1
3.391219667E0,-1.629346756E1,-3.676594482E1,-5.935157776E-1,4.021895132E1
3.401241667E0,-3.272719345E1,-6.253695374E1,-2.207085342E1,7.395310909E1
3.411264667E0,-1.936253540E1,-7.330990128E1,-4.201537857E1,8.668645476E1
3.421286667E0,-6.819369049E0,-6.585540298E1,-1.646291519E1,6.822364307E1
3.431309667E0,-9.977351990E0,-4.579352188E1,4.044589233E-1,4.686958274E1
3.441331667E0,-4.642146606E0,-2.377550858E1,-6.742279358E0,2.514523144E1
3.451354667E0,-7.589218140E-1,-1.359293335E1,-1.990261230E0,1.375881314E1
3.461376667E0,1.224453735E-1,-7.597001953E0,-1.972897339E-1,7.600549637E0
3.471399667E0,1.206491089E0,-2.986589355E0,-1.166524200E0,3.425801430E0
3.481421667E0,1.680106201E0,7.577243042E-1,-3.930676117E0,4.341326722E0
3.491444667E0,9.101074219E-1,2.962489471E0,-7.599995728E0,8.207592488E0
3.501466667E0,8.382568359E-2,3.302881622E0,-1.044497955E1,1.095507424E1
3.511488667E0,-2.482437744E0,-2.021396484E0,-1.079240707E1,1.125720175E1
3.521511667E0,-5.558091888E0,-1.134176468E1,-9.080866241E0,1.555603237E1
3.531533667E0,-5.429958344E0,-2.100701569E1,-9.116492157E0,2.353485893E1
3.541556667E0,-5.562732239E0,-2.832829102E1,-8.361013184E0,3.005565842E1
3.551578667E0,-6.827751617E0,-2.891791489E1,-6.319408722E0,3.037760557E1
3.561601667E0,-6.362519073E0,-2.004691223E1,-4.953798523E0,2.160787955E1
3.571623667E0,-4.476590881E0,-1.215816696E1,-4.800816650E0,1.381697254E1
3.581646667E0,-2.894830170E0,-7.344776459E0,-3.358565826E0,8.579379194E0
3.591668667E0,-1.464554443E0,-4.187991028E0,-2.244282990E0,4.972021189E0
3.601691667E0,-5.351371765E-1,-2.138752441E0,-1.471140747E0,2.650450698E0
3.611713667E0,-5.807922363E-2,-7.556286621E-1,-7.066804504E-1,1.036216739E0
3.621736667E0,1.977388000E-1,-7.035369873E-3,-1.672023010E-1,2.590496843E-1
3.631758667E0,2.730322266E-1,3.926335144E-1,2.186952209E-1,5.258662121E-1
3.641781667E0,1.320254517E-1,8.425978088E-1,3.848497009E-1,9.356874904E-1
3.651803667E0,-1.311273193E-1,1.164578247E0,2.496807861E-1,1.198239276E0
3.661825667E0,-5.254074097E-1,1.344653778E0,-1.115180969E-1,1.447958223E0
3.671848667E0,-1.076561279E0,1.473984833E0,-7.173083496E-1,1.961159541E0
3.681870667E0,-1.677112427E0,1.172661438E0,-1.346000977E0,2.449399839E0
3.691893667E0,-2.086361389E0,-3.287164307E-1,-1.551822968E0,2.620899247E0
3.701915667E0,-2.579436035E0,-1.865271149E0,-1.642983398E0,3.582195021E0
3.711938667E0,-3.050656128E0,-3.581901398E0,-1.996548157E0,5.111039520E0
3.721960667E0,-3.294499054E0,-5.883066101E0,-2.310894470E0,7.127722218E0
3.731983667E0,-3.379372559E0,-8.301886139E0,-2.476450195E0,9.299154689E0
3.742005667E0,-3.349883881E0,-1.043045975E1,-2.529589691E0,1.124344416E1
3.752028667E0,-3.246898041E0,-1.207703568E1,-2.586920471E0,1.277064192E1
3.762050667E0,-2.932551727E0,-1.346000977E1,-2.890040131E0,1.407565467E1
3.772073667E0,-2.334395599E0,-1.499177444E1,-3.735781403E0,1.562558052E1
3.782095667E0,-1.510508881E0,-1.695164886E1,-5.178181915E0,1.778914288E1
3.792117667E0,-5.078938293E-1,-1.881317780E1,-6.696175232E0,1.997579479E1
3.802140667E0,7.005432129E-1,-1.887170609E1,-7.156168671E0,2.019511826E1
3.812162667E0,1.595681763E0,-1.520253616E1,-4.782554626E0,1.601674545E1
3.822185667E0,1.633253632E0,-1.178020294E1,-2.029629364E0,1.206482881E1
3.832207667E0,1.215622101E0,-1.012030472E1,-1.178050232E-1,1.019373252E1
3.842230667E0,6.821315002E-1,-8.896150360E0,1.310973816E0,9.018062262E0
3.852252667E0,4.216731262E-1,-8.342601471E0,1.956132202E0,8.579234274E0
3.862275667E0,2.112107849E-1,-8.154143372E0,1.777553558E0,8.348314846E0
3.872297667E0,1.086740112E-1,-8.275391235E0,1.009800110E0,8.337482018E0
3.882320667E0,2.198927307E-1,-8.560697937E0,-1.859133911E-1,8.565539433E0
3.892342667E0,4.402345276E-1,-8.736133118E0,-1.257385254E0,8.837128830E0
3.902365667E0,6.135740662E-1,-8.842861176E0,-1.830393677E0,9.051132963E0
3.912387667E0,5.161267090E-1,-8.970246277E0,-1.774709473E0,9.158673417E0
3.922409667E0,4.400848389E-2,-9.142388306E0,-1.412762146E0,9.251005219E0
3.932432667E0,-8.063731384E-1,-9.327553253E0,-1.017284546E0,9.417449505E0
3.942454667E0,-1.886676636E0,-9.331744537E0,-6.756948853E-1,9.544504619E0
3.952477667E0,-2.791844330E0,-9.239985352E0,-4.727169800E-1,9.664118449E0
3.962499667E0,-3.401077423E0,-9.082363129E0,-4.712200928E-1,9.709721727E0
3.972522667E0,-3.801644440E0,-8.890462189E0,-6.653663635E-1,9.692034398E0
3.982544667E0,-4.074526978E0,-8.812624054E0,-8.643026733E-1,9.747365383E0
3.992567667E0,-4.190236359E0,-9.007818146E0,-1.157991943E0,1.000199049E1
4.002589667E0,-4.028123474E0,-9.234446869E0,-1.481169891E0,1.018305710E1
4.012612667E0,-3.339705048E0,-9.489666138E0,-2.026635590E0,1.026229239E1
4.022634667E0,-2.326761475E0,-9.744586029E0,-2.631228333E0,1.035828839E1
4.032656667E0,-1.531315613E0,-9.915231171E0,-2.722089386E0,1.039550419E1
4.042679667E0,-9.081614685E-1,-9.967472534E0,-2.313588867E0,1.027268025E1
4.052701667E0,-4.564009094E-1,-9.934990082E0,-1.584305420E0,1.007086657E1
4.062724667E0,-1.058299255E-1,-9.851613464E0,-8.913963318E-1,9.892425145E0
4.072746667E0,2.297721863E-1,-9.711205444E0,-4.722679138E-1,9.725396826E0
4.082769667E0,5.340893555E-1,-9.625882874E0,-1.990859985E-1,9.642743788E0
4.092791667E0,7.620652771E-1,-9.577234039E0,-8.666976929E-2,9.607896075E0
4.102814667E0,8.590635681E-1,-9.459578705E0,-9.370513916E-2,9.498968372E0
4.112835958E0,8.364605713E-1,-9.306746521E0,-2.143542480E-1,9.346718399E0
4.122858958E0,6.827302551E-1,-9.308243408E0,-3.677851868E-1,9.340491523E0
4.132880958E0,3.471281433E-1,-9.555229797E0,-3.583547974E-1,9.568246056E0
4.142903958E0,4.131408691E-2,-9.771529999E0,-3.757186890E-1,9.778837861E0
4.152925958E0,-1.712438965E-1,-9.970466309E0,-4.544549561E-1,9.982286922E0
4.162947958E0,-3.438349915E-1,-1.010788055E1,-5.510041809E-1,1.012872536E1
4.172970958E0,-5.002597046E-1,-1.023541534E1,-6.993457031E-1,1.027146881E1
4.182992958E0,-6.463558960E-1,-1.033810181E1,-8.931925964E-1,1.039672631E1
4.193015958E0,-8.033793640E-1,-1.037342834E1,-1.169517975E0,1.047001463E1
4.203037958E0,-9.586065674E-1,-1.034259247E1,-1.399739227E0,1.048081177E1
4.213060958E0,-1.089733887E0,-1.020862106E1,-1.600471802E0,1.039061952E1
4.223082958E0,-1.193168793E0,-1.000998413E1,-1.739083557E0,1.022975296E1
4.233105958E0,-1.284179535E0,-9.839338989E0,-1.778451691E0,1.008090270E1
4.243127958E0,-1.388811951E0,-9.763297119E0,-1.774709473E0,1.001999815E1
4.253150958E0,-1.509760437E0,-9.733658752E0,-1.701212311E0,9.995879782E0
4.263172958E0,-1.669178925E0,-9.754465485E0,-1.475032654E0,1.000557227E1
4.273194958E0,-1.781146088E0,-9.714498596E0,-1.144370270E0,9.942512141E0
4.283217958E0,-1.816023560E0,-9.603728943E0,-7.647596741E-1,9.803795619E0
4.293239958E0,-1.718725891E0,-9.426796875E0,-4.248165894E-1,9.591610248E0
4.303262958E0,-1.556313629E0,-9.253157959E0,-1.444496155E-1,9.384237317E0
4.313284958E0,-1.379231873E0,-9.155411224E0,8.996292114E-2,9.259153772E0
4.323307958E0,-1.164428558E0,-9.123976593E0,1.995350647E-1,9.200144400E0
4.333329958E0,-9.126521301E-1,-9.177415466E0,9.205856323E-2,9.223142812E0
4.343352958E0,-6.982978821E-1,-9.340426483E0,-1.541793823E-1,9.367761638E0
4.353374958E0,-5.173242188E-1,-9.599537659E0,-4.561015320E-1,9.624280556E0
4.363397958E0,-4.108955383E-1,-9.875264282E0,-7.330256653E-1,9.910953860E0
4.373419958E0,-3.537144470E-1,-1.007958939E1,-8.741821289E-1,1.012360758E1
4.383441958E0,-3.730242920E-1,-1.017479141E1,-8.539741516E-1,1.021737732E1
4.393464958E0,-4.195774841E-1,-1.018901184E1,-7.078779602E-1,1.022218659E1
4.403486958E0,-4.339476013E-1,-1.015009277E1,-6.593788147E-1,1.018074036E1
4.413509958E0,-4.296066284E-1,-1.008677444E1,-7.420069885E-1,1.012314946E1
4.423531958E0,-4.043092346E-1,-9.990374908E0,-8.529263306E-1,1.003486622E1
4.433554958E0,-3.935316467E-1,-9.958042145E0,-8.996292114E-1,1.000633815E1
4.443576958E0,-3.778143311E-1,-1.000145187E1,-8.753796387E-1,1.004679415E1
4.453599958E0,-3.447331238E-1,-1.006791367E1,-7.716453552E-1,1.010332436E1
4.463621958E0,-2.715353394E-1,-1.009859985E1,-6.706054688E-1,1.012448330E1
4.473644958E0,-2.157014465E-1,-1.008512787E1,-5.771997070E-1,1.010393442E1
4.483666958E0,-1.986369324E-1,-1.000294876E1,-5.014572144E-1,1.001747972E1
4.493688958E0,-2.793191528E-1,-9.878856812E0,-4.067042542E-1,9.891169771E0
4.503711958E0,-4.224215698E-1,-9.740694122E0,-3.549119568E-1,9.756306907E0
4.513733958E0,-5.909710693E-1,-9.646390228E0,-3.456312561E-1,9.670654177E0
4.523756958E0,-7.746391296E-1,-9.592202911E0,-3.842509460E-1,9.631099172E0
4.533778958E0,-9.692344666E-1,-9.594448242E0,-4.342469788E-1,9.653052520E0
4.543801958E0,-1.117875366E0,-9.632169800E0,-4.858895874E-1,9.708987026E0
4.553823958E0,-1.232536926E0,-9.687255249E0,-5.828878784E-1,9.782730693E0
4.563846958E0,-1.309177551E0,-9.663754120E0,-6.827302551E-1,9.775899455E0
4.573868958E0,-1.357826385E0,-9.590406647E0,-7.418572998E-1,9.714419406E0
4.583891958E0,-1.382525024E0,-9.474996643E0,-7.165599060E-1,9.602103672E0
4.593913958E0,-1.379830627E0,-9.380992126E0,-6.518943787E-1,9.504310186E0
4.603935958E0,-1.354084167E0,-9.385033722E0,-6.167175293E-1,9.502249334E0
4.613958958E0,-1.273851013E0,-9.462123413E0,-6.162684631E-1,9.567354008E0
4.623980958E0,-1.122964783E0,-9.587562561E0,-6.783892822E-1,9.676911583E0
4.634003958E0,-8.665480042E-1,-9.760453033E0,-8.505313110E-1,9.835687692E0
4.644025958E0,-5.213658142E-1,-9.925110626E0,-1.187779999E0,1.000951870E1
4.654048958E0,-2.631527710E-1,-1.008033783E1,-1.529070282E0,1.019904486E1
4.664070958E0,-2.872526550E-1,-1.025038422E1,-1.386716309E0,1.034774723E1
4.674093958E0,-5.162763977E-1,-1.032193542E1,-7.854167175E-1,1.036464045E1
4.684115958E0,-7.152127075E-1,-1.021835083E1,-2.011816406E-1,1.024532561E1
4.694138958E0,-8.032296753E-1,-9.984836426E0,1.083746338E-1,1.001767844E1
4.704160958E0,-7.746391296E-1,-9.633966064E0,1.700463867E-1,9.666554903E0
4.714182958E0,-7.117698669E-1,-9.382788391E0,-2.020797729E-2,9.409768472E0
4.724205958E0,-7.207511902E-1,-9.362879791E0,-3.321592712E-1,9.396453057E0
4.734227958E0,-7.659571838E-1,-9.453142090E0,-6.099815369E-1,9.503718391E0
4.744250958E0,-7.577243042E-1,-9.556127930E0,-8.915460205E-1,9.627490921E0
4.754272958E0,-6.782395935E-1,-9.667346649E0,-1.133442993E0,9.757166248E0
4.764295958E0,-6.158193970E-1,-9.805808716E0,-1.215771790E0,9.900061573E0
4.774317958E0,-5.960604858E-1,-9.956096191E0,-1.211430817E0,1.004722370E1
4.784340958E0,-5.433700562E-1,-1.003528152E1,-1.394200745E0,1.014622698E1
4.794362958E0,-5.927673340E-1,-1.001462448E1,-1.459165649E0,1.013771380E1
4.804384958E0,-7.450007629E-1,-9.915829926E0,-1.411564636E0,1.004346673E1
4.814407958E0,-8.901988220E-1,-9.794582062E0,-1.430425415E0,9.938430891E0
4.824429958E0,-1.007105713E0,-9.716743927E0,-1.482816467E0,9.880694264E0
4.834452958E0,-1.119971008E0,-9.696985016E0,-1.508862305E0,9.877374090E0
4.844474958E0,-1.271306305E0,-9.686207428E0,-1.502276001E0,9.884111859E0
4.854497958E0,-1.398242340E0,-9.708810425E0,-1.498833160E0,9.922831368E0
4.864519958E0,-1.497336273E0,-9.658065948E0,-1.576820984E0,9.899829200E0
4.874542958E0,-1.563498688E0,-9.589059448E0,-1.742975464E0,9.870792912E0
4.884564958E0,-1.564097443E0,-9.551038513E0,-1.919308777E0,9.866736222E0
4.894587958E0,-1.505569153E0,-9.454189911E0,-2.170336761E0,9.816252187E0
4.904609958E0,-1.370250549E0,-9.257798309E0,-2.388433228E0,9.658624612E0
4.914631958E0,-1.233584747E0,-8.915310516E0,-2.407144318E0,9.316589328E0
4.924654958E0,-1.129401398E0,-8.524922333E0,-2.076931000E0,8.846665512E0
4.934676958E0,-1.088536377E0,-8.061935120E0,-1.317859497E0,8.241144518E0
4.944699958E0,-1.106948090E0,-7.487429810E0,-7.481442261E-1,7.605699114E0
4.954721958E0,-1.141975250E0,-6.807843018E0,-4.626878357E-1,6.918447373E0
4.964744958E0,-1.217118988E0,-6.045777740E0,-6.888674927E-1,6.205428715E0
4.974766958E0,-1.162332916E0,-4.940027161E0,-1.464704132E0,5.282068189E0
4.984789958E0,-8.554710388E-1,-3.916156311E0,-2.197879486E0,4.571518915E0
4.994811958E0,-7.424560547E-2,-3.442690887E0,-2.815944214E0,4.448277731E0
5.004833958E0,6.780899048E-1,-3.719315643E0,-2.257305908E0,4.403242525E0
5.014856958E0,1.175355835E0,-4.372407532E0,-9.220825195E-1,4.620567620E0
5.024878958E0,1.187181244E0,-4.865631866E0,-2.278262329E-1,5.013549397E0
5.034901958E0,1.331630859E0,-5.980962524E0,-1.429078217E0,6.291853305E0
5.044923958E0,1.635948029E0,-7.219037933E0,-3.772904205E0,8.308167113E0
5.054946958E0,1.377285919E0,-8.387059021E0,-3.398832092E0,9.153782558E0
5.064968958E0,7.255412292E-1,-8.844807129E0,1.824705505E-1,8.876391087E0
5.074991958E0,3.921844482E-1,-8.867260437E0,3.253334656E0,9.453375201E0
5.085013958E0,-3.153941345E-1,-8.275241547E0,3.747756500E0,9.089817099E0
5.095035958E0,-4.782554626E-1,-7.533983002E0,3.788621521E-1,7.558648337E0
5.105058958E0,-4.403842163E-1,-5.948330383E0,-2.801723785E0,6.589858024E0
5.115081167E0,-2.899620209E0,-3.924239502E0,-5.097350006E0,7.056233422E0
5.125104167E0,-8.609047394E0,-3.774550781E0,-9.082812195E0,1.307135831E1
5.135126167E0,-9.659413147E0,-8.572373657E0,-1.423809174E1,1.922272376E1
5.145149167E0,-7.749385071E0,-1.431548080E1,-1.789109528E1,2.418837014E1
5.155171167E0,-7.134463806E0,-1.745729736E1,-1.395083908E1,2.345812687E1
5.165194167E0,-8.024662628E0,-1.653940613E1,-3.908073120E0,1.879415337E1
5.175216167E0,-7.977810059E0,-1.242970230E1,1.045875092E0,1.480664740E1
5.185238167E0,-6.141279144E0,-6.483617249E0,-1.479523315E0,9.052159488E0
5.195261167E0,-4.340673523E0,-2.043700104E0,-5.040917358E0,6.959095096E0
5.205283167E0,-4.020189972E0,3.438349915E-1,-6.378386078E0,7.547447176E0
5.215306167E0,-5.254373474E0,3.076103210E-1,-8.644074554E0,1.012042932E1
5.225328167E0,-7.046746216E0,-2.647245026E0,-1.039648041E1,1.283554998E1
5.235351167E0,-8.506660309E0,-6.430627441E0,-9.340875549E0,1.417632516E1
5.245373167E0,-9.694440308E0,-8.986562347E0,-8.214916992E0,1.556359010E1
5.255396167E0,-1.031400192E1,-1.019245468E1,-8.429271240E0,1.677251865E1
5.265418167E0,-1.056473053E1,-1.006521927E1,-8.806636505E0,1.704344498E1
5.275440167E0,-1.061113403E1,-9.151070251E0,-8.743617554E0,1.651632829E1
5.285463167E0,-1.042552002E1,-8.602760468E0,-8.578211517E0,1.600889341E1
5.295485167E0,-9.824968872E0,-8.612490234E0,-9.709409180E0,1.627813343E1
5.305508167E0,-9.050180054E0,-8.556057587E0,-1.022344025E1,1.611305716E1
5.315530167E0,-9.033863983E0,-8.179141388E0,-8.661588135E0,1.495099198E1
5.325553167E0,-8.841064911E0,-8.453670502E0,-8.280181274E0,1.477126859E1
5.335575167E0,-8.106542358E0,-9.297465820E0,-9.100774841E0,1.532915531E1
5.345598167E0,-7.723189545E0,-1.039303757E1,-9.391620026E0,1.599579361E1
5.355620167E0,-7.793243866E0,-1.205503143E1,-9.167985077E0,1.703262702E1
5.365643167E0,-8.222251740E0,-1.456935287E1,-8.513246613E0,1.877090394E1
5.375665167E0,-8.798253937E0,-1.797656754E1,-7.780819702E0,2.147341165E1
5.385687167E0,-9.821376343E0,-2.170725952E1,-6.896758118E0,2.480382676E1
5.395710167E0,-1.114522339E1,-2.548375626E1,-5.888305206E0,2.843079273E1
5.405732167E0,-1.220142700E1,-2.867916138E1,-5.144651642E0,3.158855107E1
5.415755167E0,-1.239467514E1,-3.080114868E1,-5.290298767E0,3.362032113E1
5.425777167E0,-1.217747681E1,-3.204700790E1,-5.970184937E0,3.479863166E1
5.435800167E0,-1.201326828E1,-3.226465530E1,-6.051465912E0,3.495635616E1
5.445822167E0,-1.113654144E1,-3.114513336E1,-6.009553070E0,3.361780206E1
5.455845167E0,-9.269923096E0,-2.819132584E1,-5.153932343E0,3.012051369E1
5.465867167E0,-8.126301270E0,-2.398926407E1,-2.814297638E0,2.548414868E1
5.475889167E0,-7.702083435E0,-1.918724991E1,-1.068777466E0,2.070301750E1
5.485912167E0,-6.500083008E0,-1.454061264E1,-1.164278870E0,1.596984785E1
5.495934167E0,-4.597539368E0,-1.035247192E1,-2.751278687E0,1.165678247E1
5.505957167E0,-1.848955078E0,-6.859485626E0,-7.951015778E0,1.066254331E1
5.515979167E0,2.311343536E0,-1.992207184E0,-9.339228973E0,9.825090138E0
5.526002167E0,4.299958191E0,3.357518005E0,-1.728395782E1,1.812450732E1
5.536024167E0,8.681945801E-1,4.495152283E0,-2.256093430E1,2.302077132E1
5.546047167E0,3.427871704E-2,3.223995667E0,-1.480062195E1,1.514773030E1
5.556069167E0,-6.432124329E-1,2.789598999E0,-7.452702026E0,7.983630271E0
5.566091167E0,-1.838177490E0,2.946772156E0,-2.094893646E0,4.055976086E0
5.576114167E0,-1.903591461E0,2.712209930E0,3.601510620E-1,3.333084449E0
5.586136167E0,-1.303938446E0,2.306553497E0,2.853067017E-1,2.664928596E0
5.596159167E0,-9.385482788E-1,1.712588654E0,-1.083746338E-1,1.955908441E0
5.606181167E0,-6.535409546E-1,1.362167358E0,1.098715210E-1,1.514822578E0
5.616204167E0,-3.101550293E-1,1.282982025E0,7.599696350E-1,1.523086624E0
5.626226167E0,-2.909948730E-1,1.488055573E0,1.356928253E0,2.034758385E0
5.636248167E0,-4.480183411E-1,1.778751068E0,1.682950287E0,2.489376923E0
5.646271167E0,-4.927752686E-1,1.885479126E0,1.705553284E0,2.589743424E0
5.656293167E0,-4.013154602E-1,1.668280792E0,1.664089508E0,2.390273790E0
5.666316167E0,-1.814227295E-1,1.247056732E0,1.830693054E0,2.222498990E0
5.676338167E0,-1.929487610E-1,9.159452820E-1,2.254761200E0,2.441338373E0
5.686361167E0,-2.710862732E-1,6.762936401E-1,2.681374054E0,2.778601748E0
5.696383167E0,-2.398013306E-1,4.541555786E-1,3.126847687E0,3.168743982E0
5.706406167E0,-9.729766846E-2,1.721420288E-1,3.700454865E0,3.705734194E0
5.716428167E0,4.550537109E-2,-5.733078003E-2,4.225862274E0,4.226496128E0
5.726450167E0,1.847158813E-1,-2.610571289E-1,4.685256958E0,4.696158381E0
5.736473167E0,3.457809448E-1,-5.218148804E-1,5.069208527E0,5.107712826E0
5.746495167E0,4.769082642E-1,-8.801696777E-1,5.279072113E0,5.373150149E0
5.756518167E0,5.652246094E-1,-1.199006653E0,5.155878296E0,5.323549269E0
5.766540167E0,6.836283875E-1,-1.441951447E0,4.570894775E0,4.841451311E0
5.776563167E0,8.337661743E-1,-1.613494720E0,3.679199066E0,4.103052158E0
5.786585167E0,9.928852844E-1,-1.686393127E0,2.716101837E0,3.347678622E0
5.796607167E0,1.161285095E0,-1.713486786E0,1.782642975E0,2.731745964E0
5.806630167E0,1.419647827E0,-1.656605072E0,8.393046570E-1,2.337556978E0
5.816652167E0,1.753004608E0,-1.466350708E0,-1.342707825E-1,2.289375067E0
5.826675167E0,2.174977112E0,-1.431772614E0,-1.012195129E0,2.793749673E0
5.836697167E0,2.374961243E0,-1.328487396E0,-1.801653442E0,3.263629083E0
5.846720167E0,1.946851501E0,-7.185058594E-1,-2.286495209E0,3.087805334E0
5.856742167E0,1.119072876E0,3.592529297E-2,-2.136656799E0,2.412243148E0
5.866765167E0,5.301974487E-1,4.065545654E-1,-1.606609039E0,1.739996711E0
5.876787167E0,1.787283325E-1,5.466632080E-1,-1.027463379E0,1.177482686E0
5.886809167E0,-3.517684937E-2,5.923182678E-1,-4.656816101E-1,7.542795921E-1
5.896832167E0,-2.427951050E-1,6.054908752E-1,6.676116943E-2,6.557634610E-1
5.906854167E0,-5.170248413E-1,7.087760925E-1,4.379891968E-1,9.805675766E-1
5.916877167E0,-1.122366028E0,7.825726318E-1,8.286767578E-1,1.599634519E0
5.926899167E0,-1.798659668E0,6.048921204E-1,1.217717743E0,2.254752221E0
5.936922167E0,-1.839824066E0,3.646417236E-1,2.992277527E-1,1.899329732E0
5.946944167E0,-1.799258423E0,2.034269714E-1,-1.518741760E0,2.363321802E0
5.956966167E0,-1.920206909E0,2.782713318E-1,-3.879931641E0,4.338029396E0
5.966989167E0,-2.487078094E0,6.563850403E-1,-7.160210266E0,7.608219885E0
5.977011167E0,-3.580254822E0,1.316362610E0,-1.038630157E1,1.106464168E1
5.987034167E0,-4.815037079E0,2.159708862E0,-9.877509613E0,1.119884461E1
5.997056167E0,-5.387746124E0,2.948867798E0,-6.629414062E0,9.037298291E0
6.007079167E0,-6.927743683E0,3.959266663E0,-5.828429718E0,9.881296373E0
6.017101167E0,-9.329349518E0,1.571282501E0,-1.277084290E1,1.589339861E1
6.027124167E0,-7.083719330E0,-8.524173889E0,-2.752146881E1,2.966937589E1
6.037146167E0,-1.736688538E0,-1.368184845E1,-1.921703796E1,2.365382870E1
6.047168167E0,2.918930054E-1,-2.245839752E1,-2.066362976E1,3.051967260E1
6.057191167E0,-7.015910339E0,-4.349250687E1,-1.703173233E1,4.723241533E1
6.067213167E0,-2.917672668E1,-6.521114273E1,8.226592712E0,7.191280376E1
6.077236167E0,-4.023692688E1,-7.346991852E1,2.154140442E1,8.649203036E1
6.087258167E0,-2.957055771E1,-7.799186508E1,-2.451571930E1,8.693773286E1
6.097281167E0,-1.450139420E1,-6.095070236E1,-4.961851776E1,7.992043454E1
6.107303167E0,-9.779613190E0,-3.186004669E1,-1.016221756E1,3.484213075E1
6.117326292E0,-7.544012146E0,-1.771206757E1,9.809101868E-1,1.927671241E1
6.127348292E0,-4.907245331E0,-9.772278442E0,1.253942413E0,1.100685488E1
6.137370292E0,-4.437671814E0,-3.452869720E0,3.144660645E0,6.442369983E0
6.147393292E0,-4.498445435E0,2.234253845E0,4.414619751E0,6.687059826E0
6.157415292E0,-3.773053894E0,4.764142914E0,8.906478882E-1,6.142169572E0
6.167438292E0,-1.950444031E0,4.832550659E0,-6.519093475E0,8.346038433E0
6.177460292E0,5.957611084E-2,4.026476898E0,-1.165296753E1,1.232914100E1
6.187483292E0,5.680686951E-1,-2.280807037E0,-9.070537720E0,9.370135394E0
6.197505292E0,-1.095422058E0,-9.477541351E0,-3.996389465E0,1.034383238E1
6.207527292E0,-2.869383087E0,-1.483190689E1,-1.519789581E0,1.518316771E1
6.217550292E0,-4.568499756E0,-1.830827774E1,-5.463638306E-2,1.886974321E1
6.227572292E0,-6.136339417E0,-1.940130478E1,3.951782227E-2,2.034863264E1
6.237595292E0,-6.728208618E0,-1.570563995E1,-2.052831116E0,1.720901023E1
6.247617292E0,-6.173911285E0,-1.160342056E1,-4.103865967E0,1.376946859E1
6.257640292E0,-5.338498535E0,-8.397088165E0,-4.436324615E0,1.089456894E1
6.267662292E0,-4.024231567E0,-5.703140259E0,-3.322191467E0,7.730278434E0
6.277684292E0,-2.669848022E0,-3.159330139E0,-2.454595642E0,4.809833174E0
6.287707292E0,-1.741927643E0,-1.413211212E0,-2.277064819E0,3.196326334E0
6.297729292E0,-9.533674622E-1,-5.653742981E-1,-1.234931946E0,1.659401858E0
6.307752292E0,-3.999682617E-1,-3.007246399E-1,-3.683839417E-1,6.213828513E-1
6.317774292E0,-3.876937866E-2,-3.219804382E-1,-1.106199646E-1,3.426532415E-1
6.327797292E0,8.457412720E-2,-2.251318359E-1,-1.287322998E-1,2.727803724E-1
6.337819292E0,1.118174744E-1,-4.206253052E-2,-8.906478882E-2,1.490132231E-1
6.347842292E0,5.149291992E-2,8.487350464E-2,-1.588197327E-1,1.872931928E-1
6.357864292E0,-2.977308655E-1,-7.080276489E-2,-2.466870117E-1,3.930791034E-1
6.367886292E0,-8.282276917E-1,-6.731501770E-1,-5.471122742E-1,1.199343200E0
6.377909292E0,-1.400936737E0,-1.704505463E0,-9.116043091E-1,2.387254706E0
6.387931292E0,-1.763632507E0,-3.723955994E0,-1.371298370E0,4.342661291E0
6.397954292E0,-2.072889404E0,-5.760171661E0,-1.675316162E0,6.346899424E0
6.407976292E0,-2.385439453E0,-7.525301056E0,-1.940714264E0,8.129381847E0
6.417999292E0,-2.689906311E0,-9.151070251E0,-1.926493835E0,9.730830448E0
6.428021292E0,-3.031945038E0,-1.056053925E1,-1.611548767E0,1.110471833E1
6.438043292E0,-3.281925201E0,-1.183543808E1,-1.195264435E0,1.234006826E1
6.448066292E0,-3.457210693E0,-1.290705963E1,-7.348219299E-1,1.338224411E1
6.458088292E0,-3.581751709E0,-1.383917130E1,-3.415896606E-1,1.429924092E1
6.468111292E0,-3.547323303E0,-1.474568619E1,-3.213816833E-1,1.516977422E1
6.478133292E0,-3.233276367E0,-1.553379730E1,-7.999365234E-1,1.588687613E1
6.488156292E0,-2.547702026E0,-1.564786011E1,-1.920805664E0,1.596984051E1
6.498178292E0,-1.710343323E0,-1.414184189E1,-3.378324738E0,1.464001517E1
6.508200292E0,-1.232087860E0,-1.177720917E1,-4.677024078E0,1.273166330E1
6.518223292E0,-1.299597473E0,-1.025472519E1,-5.173242188E0,1.155901281E1
6.528245292E0,-1.717079315E0,-9.568701782E0,-4.278253326E0,1.062129308E1
6.538268292E0,-2.139650574E0,-9.341174927E0,-2.870879974E0,1.000387952E1
6.548290292E0,-2.488275604E0,-9.221723328E0,-1.698966980E0,9.701452748E0
6.558313292E0,-2.697390747E0,-9.016949158E0,-5.514532471E-1,9.427904838E0
6.568335292E0,-2.598296814E0,-8.704249420E0,4.772076416E-1,9.096308671E0
6.578357292E0,-2.291584625E0,-8.611741791E0,1.374142456E0,9.016746878E0
6.588380292E0,-1.894310760E0,-8.775650940E0,1.974094849E0,9.192252888E0
6.598402292E0,-1.389261017E0,-9.027277679E0,1.964365082E0,9.342404329E0
6.608425292E0,-7.328759766E-1,-9.296567688E0,1.142574005E0,9.395145200E0
6.618447292E0,-4.790039063E-2,-9.647288361E0,-1.311273193E-1,9.648298375E0
6.628470292E0,7.213499451E-1,-1.022074585E1,-1.749412079E0,1.039444246E1
6.638492292E0,1.366807709E0,-1.077788727E1,-3.588637390E0,1.144156176E1
6.648515292E0,1.426832886E0,-1.102801712E1,-5.096302185E0,1.223214248E1
6.658537292E0,8.885522461E-1,-1.110570557E1,-4.922214203E0,1.218008267E1
6.668559292E0,-6.786886597E-1,-1.058673477E1,-3.299289093E0,1.110967506E1
6.678582292E0,-1.875300293E0,-9.760303345E0,-2.331850891E0,1.020871202E1
6.688604292E0,-2.274520111E0,-8.873247986E0,-1.754501495E0,9.326641789E0
6.698627292E0,-2.234702911E0,-8.001610565E0,-1.453178101E0,8.433943048E0
6.708649292E0,-1.814227295E0,-7.514673157E0,-1.748513947E0,7.925845971E0
6.718672292E0,-1.251846771E0,-7.855813751E0,-2.595901794E0,8.367773668E0
6.728694292E0,-1.051712952E0,-8.829838257E0,-3.398083649E0,9.519407348E0
6.738716292E0,-1.362616425E0,-9.788594513E0,-3.416944427E0,1.045699839E1
6.748739292E0,-1.986069946E0,-1.026101212E1,-2.420915680E0,1.072817208E1
6.758761292E0,-2.374961243E0,-1.003827530E1,-1.599873047E0,1.043872625E1
6.768784292E0,-2.383194122E0,-9.461075592E0,-1.069675598E0,9.815078781E0
6.778806292E0,-2.104922791E0,-8.991801453E0,-6.342311096E-1,9.256643151E0
6.788829292E0,-1.789977722E0,-8.596772919E0,-2.047741699E-1,8.783533305E0
6.798851292E0,-1.532662811E0,-8.595874786E0,2.785707092E-1,8.735886920E0
6.808873292E0,-1.255289612E0,-9.109606476E0,3.838018799E-1,9.203694152E0
6.818896292E0,-8.946894836E-1,-9.733359375E0,-3.038681030E-2,9.774440002E0
6.828918292E0,-6.541397095E-1,-1.018437149E1,-6.535409546E-1,1.022626213E1
6.838941292E0,-6.945556641E-1,-1.039184006E1,-1.237326965E0,1.048826608E1
6.848963292E0,-8.707392883E-1,-1.046069687E1,-1.576371918E0,1.061458027E1
6.858986292E0,-1.018781433E0,-1.031594788E1,-1.549727325E0,1.048133345E1
6.869008292E0,-1.075363770E0,-9.987231445E0,-1.168320465E0,1.011267382E1
6.879030292E0,-9.617500305E-1,-9.731263733E0,-8.828640747E-1,9.818447226E0
6.889053292E0,-7.229965210E-1,-9.592801666E0,-7.834707642E-1,9.651859625E0
6.899075292E0,-4.734654236E-1,-9.527088318E0,-8.195457458E-1,9.573987495E0
6.909098292E0,-2.186952209E-1,-9.520951080E0,-9.650431824E-1,9.572233042E0
6.919120292E0,5.403762817E-2,-9.532926178E0,-1.159488831E0,9.603333584E0
6.929143292E0,2.116598511E-1,-9.546697540E0,-1.360520782E0,9.645478247E0
6.939165292E0,2.653981018E-1,-9.615404663E0,-1.529818726E0,9.739958333E0
6.949187292E0,1.945953369E-1,-9.777367859E0,-1.527573395E0,9.897892203E0
6.959210292E0,-3.427871704E-2,-1.009291168E1,-1.376537476E0,1.018640745E1
6.969232292E0,-3.760180664E-1,-1.045845154E1,-1.282233582E0,1.054346817E1
6.979255292E0,-7.497908020E-1,-1.067145859E1,-1.364562378E0,1.078444459E1
6.989277292E0,-1.193168793E0,-1.054437286E1,-1.407822418E0,1.070464454E1
6.999300292E0,-1.638941803E0,-1.009889923E1,-1.278940430E0,1.031065393E1
7.009322292E0,-2.002386017E0,-9.594597931E0,-1.110540619E0,9.864033642E0
7.019344292E0,-2.259251862E0,-9.178463287E0,-1.035995636E0,9.509032246E0
7.029367292E0,-2.491718445E0,-8.844358063E0,-1.018032990E0,9.244875419E0
7.039389292E0,-2.664459229E0,-8.576714630E0,-1.041983185E0,9.041300005E0
7.049412292E0,-2.817890167E0,-8.464448090E0,-1.072819061E0,8.985450862E0
7.059434292E0,-2.962788849E0,-8.504115601E0,-1.056502991E0,9.067210071E0
7.069457292E0,-3.052901459E0,-8.720715179E0,-1.012195129E0,9.294924397E0
7.079479292E0,-3.085982666E0,-9.174721069E0,-9.963281250E-1,9.730953984E0
7.089501292E0,-3.008892975E0,-9.780511322E0,-9.928852844E-1,1.028093672E1
7.099524292E0,-2.879561920E0,-1.045500870E1,-1.132095795E0,1.090324377E1
7.109546292E0,-2.817590790E0,-1.102262833E1,-1.346749420E0,1.145647795E1
7.119569917E0,-2.831511841E0,-1.134251312E1,-1.397793274E0,1.177386467E1
7.129591917E0,-2.861898651E0,-1.134026779E1,-1.301094360E0,1.176796431E1
7.139614917E0,-2.766546936E0,-1.094568832E1,-1.171763306E0,1.135054642E1
7.149636917E0,-2.562820587E0,-1.030352371E1,-9.752220154E-1,1.066216246E1
7.159658917E0,-2.482737122E0,-9.785151672E0,-7.800279236E-1,1.012529607E1
7.169681917E0,-2.448308716E0,-9.365574188E0,-6.685098267E-1,9.703355133E0
7.179703917E0,-2.379302216E0,-9.030421143E0,-5.568420410E-1,9.355194178E0
7.189726917E0,-2.254012756E0,-8.808881836E0,-5.611830139E-1,9.109988973E0
7.199748917E0,-2.074236603E0,-8.663534088E0,-7.605683899E-1,8.940791053E0
7.209771917E0,-1.783840485E0,-8.558901672E0,-1.080453186E0,8.809328226E0
7.219793917E0,-1.536105652E0,-8.509205017E0,-1.495240631E0,8.775074652E0
7.229815917E0,-1.490749969E0,-8.490942993E0,-1.819017334E0,8.810634055E0
7.239838917E0,-1.656305695E0,-8.444988556E0,-1.861528931E0,8.804911710E0
7.249860917E0,-1.961371307E0,-8.393196259E0,-1.785037994E0,8.802220259E0
7.259883917E0,-2.315983887E0,-8.540190582E0,-2.053878937E0,9.083889873E0
7.269905917E0,-2.838846588E0,-8.975784760E0,-2.379900970E0,9.710184892E0
7.279928917E0,-3.456611938E0,-9.544302521E0,-2.496358795E0,1.045340538E1
7.289950917E0,-3.904181213E0,-1.006521927E1,-2.381248169E0,1.105538840E1
7.299972917E0,-4.158202972E0,-1.039588165E1,-1.795366516E0,1.133968025E1
7.309995917E0,-4.234843597E0,-1.051413574E1,-1.241817627E0,1.140276553E1
7.320017917E0,-4.008514252E0,-1.037806870E1,-1.116378479E0,1.118118049E1
7.330040917E0,-3.067121887E0,-1.007150620E1,-1.430724792E0,1.062494457E1
7.340062917E0,-2.001487885E0,-9.884395294E0,-1.752705231E0,1.023617114E1
7.350085917E0,-1.284628601E0,-9.817634125E0,-1.822909241E0,1.006773105E1
7.360107917E0,-8.849597168E-1,-9.756261749E0,-1.561702423E0,9.920015700E0
7.370129917E0,-7.934999084E-1,-9.689799957E0,-1.086141357E0,9.782717841E0
7.380152917E0,-8.996292114E-1,-9.632169800E0,-6.518943787E-1,9.696029809E0
7.390174917E0,-1.100661163E0,-9.631870422E0,-7.394622803E-1,9.722715017E0
7.400197917E0,-1.518442383E0,-9.553283844E0,-1.145567780E0,9.740802072E0
7.410219917E0,-1.943109283E0,-9.312584381E0,-1.450334015E0,9.623064496E0
7.420242917E0,-2.201472015E0,-9.140442352E0,-1.628014526E0,9.541729232E0
7.430264917E0,-2.338736572E0,-9.124275970E0,-1.619931335E0,9.557524694E0
7.440286917E0,-2.348466339E0,-9.166488190E0,-1.615440674E0,9.599450424E0
7.450309917E0,-2.255659332E0,-9.195527802E0,-1.596879272E0,9.601862006E0
7.460331917E0,-2.152523804E0,-9.215286713E0,-1.562301178E0,9.591436435E0
7.470354917E0,-2.114802246E0,-9.273515625E0,-1.647024994E0,9.653143111E0
7.480376917E0,-2.141895905E0,-9.298363953E0,-1.772763519E0,9.705152279E0
7.490399917E0,-2.274969177E0,-9.276659088E0,-1.831890564E0,9.725621401E0
7.500421917E0,-2.431543579E0,-9.299860840E0,-1.774559784E0,9.774910651E0
7.510443917E0,-2.507884827E0,-9.338929596E0,-1.659000092E0,9.811084222E0
7.520466917E0,-2.530936890E0,-9.376651154E0,-1.520987091E0,9.830596631E0
7.530488917E0,-2.474354553E0,-9.393715668E0,-1.519639893E0,9.832274910E0
7.540511917E0,-2.334245911E0,-9.402996368E0,-1.711540833E0,9.838415355E0
7.550533917E0,-2.171085205E0,-9.429640961E0,-1.861079865E0,9.853697675E0
7.560555917E0,-2.011367340E0,-9.466464386E0,-1.904938660E0,9.863485076E0
7.570578917E0,-1.867217102E0,-9.506431274E0,-1.878593445E0,9.868528189E0
7.580600917E0,-1.732497253E0,-9.548793182E0,-1.855541382E0,9.880487427E0
7.590623917E0,-1.601519623E0,-9.572743378E0,-1.848955078E0,9.880329739E0
7.600645917E0,-1.540147247E0,-9.603579254E0,-1.801054688E0,9.891642231E0
7.610668917E0,-1.539997559E0,-9.644294586E0,-1.710193634E0,9.915078054E0
7.620690917E0,-1.579665070E0,-9.642198944E0,-1.619931335E0,9.904116303E0
7.630712917E0,-1.656156006E0,-9.628128204E0,-1.537153473E0,9.889719219E0
7.640735917E0,-1.749112701E0,-9.571545868E0,-1.491947479E0,9.843769239E0
7.650757917E0,-1.836680603E0,-9.512867889E0,-1.474433899E0,9.800102369E0
7.660780917E0,-1.925146637E0,-9.478289795E0,-1.459465027E0,9.781319194E0
7.670802917E0,-2.019450531E0,-9.454638977E0,-1.438807983E0,9.774382182E0
7.680825917E0,-2.085014191E0,-9.422006836E0,-1.390608215E0,9.749630157E0
7.690847917E0,-2.073637848E0,-9.382489014E0,-1.422042847E0,9.713561647E0
7.700869917E0,-2.043400726E0,-9.342671814E0,-1.497336273E0,9.680031977E0
7.710892917E0,-1.996697845E0,-9.279802551E0,-1.500629425E0,9.610069008E0
7.720914917E0,-1.904040527E0,-9.181756439E0,-1.490001526E0,9.494742028E0
7.730937917E0,-1.835483093E0,-9.101672974E0,-1.451531525E0,9.397680186E0
7.740959917E0,-1.803449707E0,-9.076525269E0,-1.419947205E0,9.362264249E0
7.750982917E0,-1.816173248E0,-9.067244568E0,-1.502425690E0,9.368601404E0
7.761004917E0,-1.900897064E0,-9.109905853E0,-1.654210052E0,9.451994774E0
7.771026917E0,-2.020348663E0,-9.141190796E0,-1.802401886E0,9.533720703E0
7.781049917E0,-2.176773376E0,-9.189091187E0,-1.901495819E0,9.632934419E0
7.791071917E0,-2.375559998E0,-9.231303406E0,-1.915267181E0,9.722576626E0
7.801094917E0,-2.590662689E0,-9.229207764E0,-1.868713989E0,9.766365808E0
7.811116917E0,-2.778222656E0,-9.179361420E0,-1.795516205E0,9.757206344E0
7.821139917E0,-2.921025696E0,-9.064849548E0,-1.712438965E0,9.676586984E0
7.831161917E0,-2.978057098E0,-8.977581024E0,-1.552421722E0,9.585186400E0
7.841183917E0,-3.001857605E0,-8.796008606E0,-1.256636810E0,9.378702072E0
7.851206917E0,-2.963387604E0,-8.355025635E0,-1.225351868E0,8.949279672E0
7.861228917E0,-2.902015228E0,-7.731572113E0,-1.532513123E0,8.399255693E0
7.871251917E0,-2.787952423E0,-7.039860535E0,-2.114802246E0,7.861596759E0
7.881273917E0,-2.638712769E0,-6.110742645E0,-3.117866364E0,7.350174924E0
7.891295917E0,-2.481539612E0,-4.883594513E0,-4.549638977E0,7.120867155E0
7.901318917E0,-2.363285522E0,-3.660637665E0,-5.818400574E0,7.269055772E0
7.911340917E0,-2.255210266E0,-3.096909943E0,-6.023174744E0,7.138309221E0
7.921363917E0,-2.042652283E0,-3.274291077E0,-5.325924683E0,6.577148632E0
7.931385917E0,-1.906136169E0,-3.830234985E0,-4.273912354E0,6.047345033E0
7.941408917E0,-1.503623199E0,-5.068310394E0,-2.737956390E0,5.953575243E0
7.951430917E0,-8.807684326E-1,-6.476282501E0,-2.760260010E-1,6.541725951E0
7.961452917E0,-3.499722290E-1,-7.321874084E0,2.499502258E0,7.744664758E0
7.971475917E0,4.712200928E-1,-7.374414825E0,3.035687256E0,7.988706999E0
7.981497917E0,1.092727661E0,-7.175179138E0,1.981878662E0,7.523635586E0
7.991520917E0,1.415157166E0,-7.276967468E0,1.018631744E0,7.482949684E0
8.001542917E0,1.794618073E0,-7.680378571E0,-7.432044983E-1,7.922198050E0
8.011565917E0,1.334025879E0,-7.790549469E0,-7.647596741E-1,7.940852815E0
8.021587917E0,-8.547225952E-2,-7.600893860E0,4.535568237E-1,7.614893746E0
8.031609917E0,-1.821711731E0,-6.937024384E0,-1.340612183E0,7.296449955E0
8.041632917E0,-4.991819458E0,-6.947801971E0,-3.921844482E0,9.411220850E0
8.051654917E0,-8.846304016E0,-8.458759918E0,-9.450747070E0,1.546364557E1
8.061677917E0,-9.403744812E0,-1.129476242E1,-1.488609421E1,2.091884020E1
8.071699917E0,-9.740544434E0,-1.310479843E1,-1.128667923E1,1.984951072E1
8.081722917E0,-1.071771240E1,-1.337708221E1,-4.777315521E0,1.779433706E1
8.091744917E0,-1.133547775E1,-1.180819473E1,-2.065704346E0,1.649829243E1
8.101766917E0,-1.090467361E1,-8.849148102E0,-3.165617065E0,1.439584871E1
8.111789917E0,-9.973160706E0,-5.698799286E0,-4.245770874E0,1.224609399E1
8.121811292E0,-9.415869598E0,-3.278033295E0,-4.610711975E0,1.098466055E1
8.131834292E0,-9.059161377E0,-2.082020416E0,-6.360124054E0,1.126296550E1
8.141856292E0,-8.330776062E0,-2.657573547E0,-7.743397522E0,1.168009983E1
8.151879292E0,-6.800657959E0,-4.920717316E0,-6.496041412E0,1.061418681E1
8.161901292E0,-5.514981537E0,-7.598798218E0,-5.594615936E0,1.092961496E1
8.171923292E0,-5.404361572E0,-9.592502289E0,-4.178111572E0,1.177624051E1
8.181946292E0,-6.028114471E0,-9.960586853E0,-4.646786957E0,1.253571233E1
8.191968292E0,-7.386240234E0,-8.989556122E0,-6.181395721E0,1.317491241E1
8.201991292E0,-8.976982269E0,-8.162226562E0,-6.499633942E0,1.376420701E1
8.212013292E0,-1.024604324E1,-7.988288269E0,-6.505471802E0,1.452980781E1
8.222036292E0,-1.107546844E1,-8.248297577E0,-6.777605896E0,1.538298917E1
8.232058292E0,-1.181597855E1,-8.594677277E0,-6.494544525E0,1.598952579E1
8.242080292E0,-1.193438232E1,-9.304950256E0,-6.745273132E0,1.656835207E1
8.252103292E0,-1.126871658E1,-1.018137772E1,-6.805747375E0,1.664219406E1
8.262125292E0,-1.015533188E1,-1.049617310E1,-6.274651794E0,1.589564942E1
8.272148292E0,-8.888067169E0,-1.068029022E1,-6.289470978E0,1.525200913E1
8.282170292E0,-8.163424072E0,-1.134475845E1,-6.985224152E0,1.562492859E1
8.292192292E0,-8.174201660E0,-1.254541168E1,-7.593409424E0,1.678882943E1
8.302215292E0,-9.269024963E0,-1.424827057E1,-7.035669250E0,1.839643117E1
8.312237292E0,-1.125419678E1,-1.655796753E1,-5.985153809E0,2.089605944E1
8.322260292E0,-1.379366592E1,-1.949186646E1,-5.292394409E0,2.445828114E1
8.332282292E0,-1.612866028E1,-2.368764130E1,-5.576802979E0,2.919484139E1
8.342305292E0,-1.755249939E1,-2.822186234E1,-5.794899445E0,3.373639886E1
8.352327292E0,-1.841829895E1,-3.061598373E1,-4.562811584E0,3.601932045E1
8.362349292E0,-1.863220413E1,-3.100352783E1,-3.091371460E0,3.630336550E1
8.372372292E0,-1.831231934E1,-3.032409073E1,-2.011217651E0,3.548149538E1
8.382394292E0,-1.616234024E1,-2.849130203E1,-2.123334503E0,3.282505267E1
8.392417292E0,-1.224453735E1,-2.520802963E1,-3.373983765E0,2.822688823E1
8.402439292E0,-8.766968994E0,-2.179198334E1,-3.847449188E0,2.380237695E1
8.412462292E0,-6.555916901E0,-1.700912933E1,-5.133275299E0,1.893782042E1
8.422484292E0,-4.900509338E0,-1.176822784E1,-8.208330688E0,1.516188877E1
8.432506292E0,-2.179318085E0,-7.009623413E0,-1.026161087E1,1.261685006E1
8.442529292E0,2.727627869E0,-3.180885315E0,-1.353754852E1,1.417121043E1
8.452551292E0,7.539970551E0,-7.572752380E-1,-1.977567627E1,2.117786565E1
8.462574292E0,5.050946503E0,9.922865295E-1,-1.796055084E1,1.868363133E1
8.472596292E0,4.004173279E-1,2.015259247E0,-1.243703705E1,1.260561361E1
8.482619292E0,-1.444945221E0,2.171384583E0,-5.416037292E0,6.011342417E0
8.492641292E0,-2.009870453E0,2.417622528E0,-1.920655975E0,3.684209183E0
8.502663292E0,-1.014440460E0,2.319127350E0,1.451830902E0,2.918090828E0
8.512686292E0,2.125579834E-2,1.826052704E0,3.236270142E0,3.715960807E0
8.522708292E0,4.790039063E-2,1.561403046E0,3.390000458E0,3.732609948E0
8.532731292E0,-7.933502197E-1,1.733096008E0,2.499801636E0,3.143570353E0
8.542753292E0,-1.395248566E0,1.937570801E0,1.570534058E0,2.857879703E0
8.552776292E0,-1.472338257E0,2.268083496E0,1.537003784E0,3.110363857E0
8.562798292E0,-1.567689972E0,2.597248993E0,1.962718506E0,3.613255888E0
8.572820292E0,-1.666634216E0,2.770139465E0,2.343227234E0,3.992750448E0
8.582843292E0,-1.500030670E0,2.562820587E0,2.341580658E0,3.781684988E0
8.592865292E0,-1.154399414E0,2.117197266E0,2.241438904E0,3.292295647E0
8.602888292E0,-8.370593262E-1,1.738185425E0,2.193688202E0,2.921339558E0
8.612910292E0,-6.405180359E-1,1.477727051E0,2.364782410E0,2.861142505E0
8.622932292E0,-5.875282288E-1,1.285227356E0,2.813549194E0,3.148500889E0
8.632955292E0,-6.608757019E-1,1.221010895E0,3.314856720E0,3.593869693E0
8.642977292E0,-7.946974182E-1,1.138831787E0,3.577710114E0,3.837771682E0
8.653000292E0,-8.948391724E-1,9.818083191E-1,3.596720581E0,3.834199220E0
8.663022292E0,-8.436456299E-1,6.897656250E-1,3.595822449E0,3.757320009E0
8.673045292E0,-6.755451965E-1,1.923500061E-1,3.766766968E0,3.831695868E0
8.683067292E0,-4.752616882E-1,-2.800675964E-1,3.986959076E0,4.024941516E0
8.693089292E0,-2.947370911E-1,-6.117778015E-1,4.031117249E0,4.087914909E0
8.703112292E0,-1.396595764E-1,-8.810678101E-1,3.976630554E0,4.075460201E0
8.713134292E0,1.167572021E-2,-1.048419800E0,3.594325562E0,3.744128289E0
8.723157292E0,2.508782959E-1,-1.124910736E0,2.698438568E0,2.934269038E0
8.733179292E0,5.771997070E-1,-1.103654938E0,1.556613007E0,1.993554056E0
8.743202292E0,9.391470337E-1,-9.752220154E-1,5.209167480E-2,1.354905411E0
8.753224292E0,1.281036072E0,-8.893006897E-1,-1.900597687E0,2.458491550E0
8.763246292E0,1.448986816E0,-8.446934509E-1,-3.463198242E0,3.847962043E0
8.773269292E0,1.511407013E0,-8.129594421E-1,-4.529431000E0,4.843655582E0
8.783291292E0,1.501826935E0,-8.062234497E-1,-4.575086060E0,4.882304051E0
8.793314292E0,1.242266693E0,-7.955955505E-1,-3.319497070E0,3.632527993E0
8.803336292E0,8.361611938E-1,-7.557783508E-1,-1.743424530E0,2.076028793E0
8.813359292E0,5.593867493E-1,-6.011499023E-1,-6.469546509E-1,1.045392300E0
8.823381292E0,1.623374176E0,-9.804611206E-2,7.987390137E-1,1.811888729E0
8.833403292E0,2.127076721E0,3.222798157E-1,9.768685913E-1,2.362750918E0
8.843426292E0,1.385069733E0,1.469943237E-1,-1.977388000E-1,1.406814177E0
8.853448292E0,1.052461395E0,-1.161584473E-1,-1.212927704E0,1.610081174E0
8.863471292E0,6.905140686E-1,-2.498304749E-1,-2.452200623E0,2.559787655E0
8.873493292E0,-1.607656860E-1,-7.694000244E-2,-3.851191406E0,3.855313297E0
8.883516292E0,-1.239721985E0,4.432283020E-1,-5.051545258E0,5.220294189E0
8.893538292E0,-2.190095673E0,1.103355560E0,-5.307962036E0,5.847082480E0
8.903560292E0,-3.157533875E0,1.994901581E0,-4.995411987E0,6.237290550E0
8.913583292E0,-4.373155975E0,3.015928345E0,-4.686454468E0,7.084008219E0
8.923605292E0,-4.856500854E0,1.569336548E0,-8.584947510E0,9.987479236E0
8.933628292E0,-3.983665924E0,-4.391867065E0,-1.740161316E1,1.838407547E1
8.943650292E0,-4.722679138E-1,-6.421047363E0,-1.288700134E1,1.440582139E1
8.953673292E0,1.608255615E0,-1.004980133E1,-2.181249069E1,2.407010060E1
8.963695292E0,-2.217039642E0,-2.720652374E1,-5.678381744E1,6.300406433E1
8.973717292E0,-1.561268326E1,-3.427063385E1,-1.244886246E1,3.966366599E1
8.983740292E0,-2.572655136E1,-4.885001587E1,1.017060013E1,5.613929642E1
8.993762292E0,-1.728979568E1,-6.655414993E1,6.800807648E0,6.909879082E1
9.003785292E0,-1.488998611E1,-7.238722000E1,1.720567062E1,7.587922250E1
9.013807292E0,-6.092480621E0,-5.970259781E1,5.913452911E0,6.030329535E1
9.023830292E0,1.633852386E0,-3.169314377E1,-9.736502838E0,3.319524549E1
9.033852292E0,1.855990448E0,-1.498653534E1,-2.909349976E0,1.537872749E1
9.043874292E0,-4.348307648E0,-2.055375824E0,-6.681206360E0,8.232306335E0
9.053897292E0,-1.152154083E1,4.721631317E0,-1.117516113E1,1.673092740E1
9.063919292E0,-1.350671265E1,-1.791175232E0,-9.506281586E0,1.661351813E1
9.073942292E0,-1.473520798E1,-1.400278107E1,-1.107187592E1,2.314715248E1
9.083964292E0,-1.495300507E1,-2.002655457E1,-1.529384628E1,2.930114302E1
9.093987292E0,-1.507664795E1,-2.163106796E1,-9.701475677E0,2.809496476E1
9.104009292E0,-1.367556152E1,-2.135564072E1,-5.955365753E0,2.604900679E1
9.114035667E0,-1.097008759E1,-1.745984207E1,-7.229067078E0,2.185059078E1
9.124058667E0,-7.494914246E0,-1.099328934E1,-6.823111267E0,1.495262510E1
9.134080667E0,-5.294939117E0,-6.677164764E0,-4.821324005E0,9.791122240E0
9.144103667E0,-3.905678101E0,-3.453618164E0,-3.481160889E0,6.268993618E0
9.154125667E0,-2.567910004E0,-1.223555603E0,-2.714604950E0,3.931962631E0
9.164148667E0,-1.124311981E0,-4.312532043E-1,-2.195634155E0,2.504169743E0
9.174170667E0,1.758842468E-1,-2.231858826E-1,-1.429976349E0,1.457936749E0
9.184192667E0,9.577084351E-1,-1.642085266E-1,-3.345542908E-1,1.027665539E0
9.194215667E0,1.380130005E0,-2.800675964E-1,6.439608765E-1,1.548509703E0
9.204237667E0,1.537303162E0,-5.700146484E-1,1.098715210E0,1.973674954E0
9.214260667E0,1.635948029E0,-1.059945831E0,1.179696808E0,2.278485391E0
9.224282667E0,1.606159973E0,-1.452729034E0,9.084608459E-1,2.348504336E0
9.234305667E0,1.469643860E0,-1.989961853E0,4.909790039E-2,2.474310380E0
9.244327667E0,1.254690857E0,-2.835852814E0,-1.476679230E0,3.434660373E0
9.254349667E0,9.415420532E-1,-3.613934784E0,-2.666854248E0,4.589023604E0
9.264372667E0,4.505630493E-1,-4.411625977E0,-3.198548584E0,5.467738460E0
9.274394667E0,-3.228785706E-1,-5.586682434E0,-3.582649841E0,6.644595629E0
9.284417667E0,-1.167122955E0,-6.685547333E0,-4.218228149E0,7.990755149E0
9.294439667E0,-1.610051880E0,-7.949818268E0,-5.267396393E0,9.671470535E0
9.304461667E0,-1.735640717E0,-9.510323181E0,-6.351292419E0,1.156709173E1
9.314484667E0,-1.862427063E0,-1.101065323E1,-6.405479736E0,1.287374420E1
9.324506667E0,-2.195933533E0,-1.219214630E1,-5.462291107E0,1.353909818E1
9.334529667E0,-2.600991211E0,-1.333831284E1,-4.709207153E0,1.438236339E1
9.344551667E0,-3.137026520E0,-1.427416672E1,-4.092938690E0,1.517711824E1
9.354574667E0,-3.663481750E0,-1.461410980E1,-3.073558502E0,1.537660774E1
9.364596667E0,-4.010759583E0,-1.382974091E1,-1.498384094E0,1.447732989E1
9.374618667E0,-3.953428802E0,-1.219603821E1,-5.388793945E-2,1.282091460E1
9.384641667E0,-3.616180115E0,-1.040201889E1,9.909393311E-1,1.105715679E1
9.394663667E0,-3.130140839E0,-8.646469574E0,1.342558136E0,9.293098521E0
9.404686667E0,-2.566562805E0,-7.495812378E0,1.223106537E0,8.016884522E0
9.414708667E0,-2.091450806E0,-6.775510254E0,9.075627136E-1,7.148802400E0
9.424731667E0,-1.865121460E0,-6.312972107E0,2.659968567E-1,6.588099059E0
9.434753667E0,-1.925296326E0,-6.317612457E0,-7.427554321E-1,6.646102522E0
9.444775667E0,-2.081122284E0,-6.912625122E0,-1.921105042E0,7.470348092E0
9.454798667E0,-2.184108124E0,-7.904163208E0,-3.153043213E0,8.785659100E0
9.464820667E0,-2.236050110E0,-8.820258179E0,-4.177512817E0,1.001241668E1
9.474843667E0,-2.344574432E0,-9.496551819E0,-4.484823761E0,1.076081641E1
9.484865667E0,-2.486030273E0,-1.000309845E1,-3.942950592E0,1.103581372E1
9.494888667E0,-2.465522919E0,-1.041698776E1,-3.121907959E0,1.115072852E1
9.504910667E0,-2.247576141E0,-1.074271042E1,-2.413131866E0,1.123746551E1
9.514932667E0,-1.883233795E0,-1.083506836E1,-1.808539124E0,1.114522721E1
9.524955667E0,-1.425036621E0,-1.066636917E1,-1.198258209E0,1.082764902E1
9.534977667E0,-9.050180054E-1,-1.032388138E1,-6.749464417E-1,1.038542907E1
9.545000667E0,-4.688250732E-1,-9.941726074E0,-3.348536682E-1,9.958405558E0
9.555022667E0,-2.083666992E-1,-9.666598206E0,-2.836601257E-1,9.673003702E0
9.565045667E0,-1.640588379E-1,-9.449549561E0,-7.161108398E-1,9.478065042E0
9.575067667E0,-3.956272888E-1,-9.364825745E0,-1.266665955E0,9.458378551E0
9.585089667E0,-6.994953918E-1,-9.435778198E0,-1.615141296E0,9.598535587E0
9.595112667E0,-9.355545044E-1,-9.562414856E0,-1.797911224E0,9.774841425E0
9.605134667E0,-1.126557312E0,-9.620643768E0,-1.951641541E0,9.881033478E0
9.615157667E0,-1.294957123E0,-9.529333649E0,-1.989063721E0,9.820462730E0
9.625179667E0,-1.414408722E0,-9.450747070E0,-1.817670135E0,9.727337608E0
9.635202667E0,-1.486558685E0,-9.413624268E0,-1.469045105E0,9.642835273E0
9.645224667E0,-1.468296661E0,-9.363478546E0,-1.118174744E0,9.543633497E0
9.655246667E0,-1.382525024E0,-9.379495239E0,-9.169931030E-1,9.525081771E0
9.665269667E0,-1.337917786E0,-9.464817810E0,-9.234297180E-1,9.603412030E0
9.675291667E0,-1.353036346E0,-9.593250732E0,-1.186133423E0,9.760536843E0
9.685314667E0,-1.457219696E0,-9.700278168E0,-1.427581329E0,9.912460554E0
9.695336667E0,-1.631756744E0,-9.751471710E0,-1.589843903E0,1.001406182E1
9.705359667E0,-1.897753601E0,-9.731413422E0,-1.660496979E0,1.005281683E1
9.715381667E0,-2.120041351E0,-9.646090851E0,-1.808688812E0,1.004056768E1
9.725403667E0,-2.246228943E0,-9.516161041E0,-2.145488434E0,1.001029400E1
9.735426667E0,-2.315983887E0,-9.358538818E0,-2.417921906E0,9.939435423E0
9.745448667E0,-2.289638672E0,-9.198072510E0,-2.432890778E0,9.786007392E0
9.755471667E0,-2.196232910E0,-9.148824921E0,-2.312690735E0,9.688806679E0
9.765493667E0,-2.030228119E0,-9.259893951E0,-2.153571625E0,9.721385341E0
9.775516667E0,-1.861079865E0,-9.367370453E0,-1.839973755E0,9.726086103E0
9.785538667E0,-1.721569977E0,-9.399403839E0,-1.456321564E0,9.666098914E0
9.795560667E0,-1.565444641E0,-9.445358276E0,-1.154399414E0,9.643549549E0
9.805583667E0,-1.395997009E0,-9.487869873E0,-1.018931122E0,9.643998290E0
9.815605667E0,-1.232536926E0,-9.530531158E0,-1.020128632E0,9.663893308E0
9.825628667E0,-1.090332642E0,-9.610764313E0,-1.103056183E0,9.735109084E0
9.835650667E0,-1.013242950E0,-9.730215912E0,-1.178499298E0,9.853558929E0
9.845673667E0,-9.454339600E-1,-9.842183075E0,-1.234183502E0,9.964217078E0
9.855695667E0,-8.681945801E-1,-9.867779846E0,-1.277892609E0,9.987985304E0
9.865717667E0,-8.117619324E-1,-9.817334747E0,-1.318907318E0,9.938739130E0
9.875740667E0,-7.559280396E-1,-9.751771088E0,-1.434467010E0,9.885654361E0
9.885762667E0,-7.457492065E-1,-9.692494354E0,-1.604962463E0,9.852740390E0
9.895785667E0,-7.749385071E-1,-9.656269684E0,-1.723515930E0,9.839440078E0
9.905807667E0,-8.306227112E-1,-9.677974548E0,-1.883982239E0,9.894569951E0
9.915829667E0,-9.180409241E-1,-9.709558868E0,-1.981279907E0,9.952075293E0
9.925852667E0,-1.007405090E0,-9.708211670E0,-1.856140137E0,9.935265223E0
9.935874667E0,-1.058598633E0,-9.696386261E0,-1.623823242E0,9.888242488E0
9.945897667E0,-1.069076843E0,-9.639055481E0,-1.426832886E0,9.802559255E0
9.955919667E0,-1.070124664E0,-9.549841003E0,-1.320404205E0,9.699901920E0
9.965942667E0,-1.032852173E0,-9.549092560E0,-1.356479187E0,9.700102479E0
9.975964667E0,-9.891430664E-1,-9.558223572E0,-1.393152924E0,9.709733103E0
9.985986667E0,-9.840536499E-1,-9.540560303E0,-1.347797241E0,9.685412220E0
9.996009667E0,-9.955796814E-1,-9.557475128E0,-1.328188019E0,9.700546023E0
1.000603167E1,-1.016087036E0,-9.587113495E0,-1.252744904E0,9.721859278E0
1.001605467E1,-1.013392639E0,-9.655371552E0,-1.338815918E0,9.800285328E0
1.002607667E1,-1.016087036E0,-9.782157898E0,-1.506018219E0,9.949428973E0
1.003609967E1,-1.101708984E0,-9.841135254E0,-1.517544250E0,1.001821573E1
1.004612167E1,-1.232387238E0,-9.807754669E0,-1.444047089E0,9.989799895E0
1.005614367E1,-1.329235840E0,-9.717192993E0,-1.479074249E0,9.918587007E0
1.006616667E1,-1.376088409E0,-9.586814117E0,-1.599873047E0,9.816324057E0
1.007618867E1,-1.370100861E0,-9.449100494E0,-1.701511688E0,9.698341020E0
1.008621167E1,-1.368154907E0,-9.390422516E0,-1.716929626E0,9.643636773E0
1.009623367E1,-1.351988525E0,-9.418264618E0,-1.730551300E0,9.670904259E0
1.010625667E1,-1.255439301E0,-9.475745087E0,-1.801204376E0,9.726777986E0
1.011627542E1,-1.146615601E0,-9.535770264E0,-1.857487335E0,9.782428178E0
1.012629742E1,-1.092278595E0,-9.632469177E0,-1.909429321E0,9.880458254E0
1.013632042E1,-1.122815094E0,-9.667795715E0,-1.775158539E0,9.893339960E0
1.014634242E1,-1.175056458E0,-9.613608398E0,-1.485211487E0,9.798371154E0
1.015636542E1,-1.156794434E0,-9.558672638E0,-1.292861481E0,9.714828190E0
1.016638742E1,-1.060095520E0,-9.516310730E0,-1.237177277E0,9.654769807E0
1.017641042E1,-9.147477722E-1,-9.537267151E0,-1.269210663E0,9.664736101E0
1.018643242E1,-7.972421265E-1,-9.633217621E0,-1.373094635E0,9.763189316E0
1.019645442E1,-7.524851990E-1,-9.769284668E0,-1.474134521E0,9.908492796E0
1.020647742E1,-7.527845764E-1,-9.829309845E0,-1.472338257E0,9.967436811E0
1.021649942E1,-8.057743835E-1,-9.798773346E0,-1.397344208E0,9.930649640E0
1.022652242E1,-8.940907288E-1,-9.743238831E0,-1.343605957E0,9.876000107E0
1.023654442E1,-9.523196411E-1,-9.648635559E0,-1.313967590E0,9.784150023E0
1.024656642E1,-1.001567230E0,-9.557026062E0,-1.256187744E0,9.691124378E0
1.025658942E1,-1.037941589E0,-9.491911469E0,-1.197360077E0,9.623272688E0
1.026661142E1,-1.052311707E0,-9.445058899E0,-1.207389221E0,9.579889679E0
1.027663442E1,-1.031654663E0,-9.420659637E0,-1.236877899E0,9.557353519E0
1.028665642E1,-9.500743103E-1,-9.473649445E0,-1.416504364E0,9.625962789E0
1.029667942E1,-8.568182373E-1,-9.590556335E0,-1.681303711E0,9.774440674E0
1.030670142E1,-8.360115051E-1,-9.706714783E0,-1.777703247E0,9.903507255E0
1.031672342E1,-8.696914673E-1,-9.755513306E0,-1.705852661E0,9.941646564E0
1.032674642E1,-9.493258667E-1,-9.755363617E0,-1.479673004E0,9.912505793E0
1.033676842E1,-1.026714935E0,-9.736053772E0,-1.279988251E0,9.873360954E0
1.034679142E1,-1.072819061E0,-9.692344666E0,-1.222058716E0,9.827813254E0
1.035681342E1,-1.084494781E0,-9.652677155E0,-1.276246033E0,9.796892830E0
1.036683642E1,-1.088386688E0,-9.612710266E0,-1.418450317E0,9.777565420E0
1.037685842E1,-1.089584198E0,-9.594298553E0,-1.559606781E0,9.781110968E0
1.038688042E1,-1.125359802E0,-9.569749603E0,-1.528321838E0,9.756142157E0
1.039690342E1,-1.128353577E0,-9.530381470E0,-1.410067749E0,9.699981640E0
1.040692542E1,-1.066681824E0,-9.519603882E0,-1.371448059E0,9.676855789E0
1.041694842E1,-9.806108093E-1,-9.593400421E0,-1.443747711E0,9.750863380E0
1.042697042E1,-9.276210022E-1,-9.727371826E0,-1.534608765E0,9.891272286E0
1.043699342E1,-8.777746582E-1,-9.818681946E0,-1.531165924E0,9.976044937E0
1.044701542E1,-8.484356689E-1,-9.888137512E0,-1.497336273E0,1.003678845E1
1.045703742E1,-8.479866028E-1,-9.894424438E0,-1.413809967E0,1.003083122E1
1.046706042E1,-8.499325562E-1,-9.817933502E0,-1.299298096E0,9.939938589E0
1.047708242E1,-9.002279663E-1,-9.709109802E0,-1.209185486E0,9.825444167E0
1.048710542E1,-9.678872681E-1,-9.575138397E0,-1.155746613E0,9.693081622E0
1.049712742E1,-1.009800110E0,-9.439819794E0,-1.174158325E0,9.566009710E0
1.050714942E1,-1.041534119E0,-9.378597107E0,-1.233285370E0,9.516505126E0
1.051717242E1,-1.045725403E0,-9.372609558E0,-1.383572845E0,9.531716811E0
1.052719442E1,-9.940827942E-1,-9.395362244E0,-1.595382385E0,9.581559228E0
1.053721742E1,-9.328601074E-1,-9.473499756E0,-1.864522705E0,9.700199509E0
1.054723942E1,-9.066645813E-1,-9.598340149E0,-2.022743683E0,9.850972860E0
1.055726242E1,-9.499246216E-1,-9.728868713E0,-1.995799713E0,9.976796065E0
1.056728442E1,-1.076261902E0,-9.855804749E0,-1.792971497E0,1.007521581E1
1.057730642E1,-1.216071167E0,-9.924511871E0,-1.532064056E0,1.011543302E1
1.058732942E1,-1.299447784E0,-9.875713348E0,-1.322649536E0,1.004826754E1
1.059735142E1,-1.294957123E0,-9.747130737E0,-1.234632568E0,9.909984316E0
1.060737442E1,-1.257235565E0,-9.600435791E0,-1.230291595E0,9.760257479E0
1.061739642E1,-1.208137665E0,-9.444310455E0,-1.249900818E0,9.602960411E0
1.062741942E1,-1.169218597E0,-9.279652863E0,-1.291813660E0,9.441811898E0
1.063744142E1,-1.150657196E0,-9.122479706E0,-1.381626892E0,9.297985848E0
1.064746342E1,-1.133742371E0,-8.998986511E0,-1.587448883E0,9.207992395E0
1.065748642E1,-1.143322449E0,-8.867709503E0,-1.875000916E0,9.135594479E0
1.066750842E1,-1.182540894E0,-8.721912689E0,-2.203567657E0,9.073360697E0
1.067753142E1,-1.234482880E0,-8.516539764E0,-2.605930939E0,8.991455588E0
1.068755342E1,-1.340612183E0,-8.313861237E0,-3.053949280E0,8.957909125E0
1.069757542E1,-1.535357208E0,-8.250093842E0,-3.380420380E0,9.047022278E0
1.070759842E1,-1.866917725E0,-8.334967346E0,-3.376977539E0,9.184826604E0
1.071762042E1,-2.331401825E0,-8.472231903E0,-2.843636627E0,9.235822495E0
1.072764342E1,-2.893632660E0,-8.469986572E0,-2.136806488E0,9.202158685E0
1.073766542E1,-3.446732483E0,-7.948171692E0,-1.695524139E0,8.827695065E0
1.074768842E1,-3.706592102E0,-7.321874084E0,-1.524579620E0,8.347035889E0
1.075771042E1,-3.618275757E0,-6.960076447E0,-1.755249939E0,8.038375827E0
1.076773242E1,-3.250789948E0,-6.413263550E0,-2.628384247E0,7.655454813E0
1.077775542E1,-2.066303101E0,-6.110892334E0,-3.824247437E0,7.499165425E0
1.078777742E1,-6.779402161E-1,-6.268065491E0,-3.978726196E0,7.455099602E0
1.079780042E1,-3.379971313E-1,-6.255192261E0,-1.816472626E0,6.522364991E0
1.080782242E1,-1.848655701E-1,-6.026467896E0,2.375559998E-1,6.033980728E0
1.081784542E1,3.367996216E-2,-5.182373199E0,1.048868866E0,5.287556356E0
1.082786742E1,5.983058167E-1,-4.029171295E0,-3.463796997E-1,4.088052112E0
1.083788942E1,1.416204987E0,-3.560196533E0,-3.358715515E0,5.095253265E0
1.084791242E1,1.570683746E0,-4.274361420E0,-4.611610107E0,6.481061700E0
1.085793442E1,7.699987793E-1,-5.891598358E0,-2.504142609E0,6.447833709E0
1.086795742E1,-6.409671021E-1,-7.360643463E0,-6.975494385E-1,7.421353397E0
1.087797942E1,-2.262844391E0,-8.044720917E0,-4.014651489E-1,8.366550880E0
1.088800142E1,-3.535647583E0,-8.039930878E0,-1.283880157E0,8.876352889E0
1.089802442E1,-4.469705200E0,-7.658224640E0,-2.361339569E0,9.176197130E0
1.090804642E1,-5.792354736E0,-7.440577240E0,-3.363954620E0,1.001148110E1
1.091806942E1,-6.759643250E0,-7.778574371E0,-7.369026031E0,1.266892027E1
1.092809142E1,-7.147337036E0,-8.233029327E0,-9.511520691E0,1.446845619E1
1.093811442E1,-7.846982117E0,-8.157885590E0,-6.070626068E0,1.284440448E1
1.094813642E1,-7.855364685E0,-8.368198242E0,-4.887037354E0,1.247463948E1
1.095815842E1,-6.498735809E0,-9.200317841E0,-5.822741547E0,1.268005263E1
1.096818142E1,-5.333858185E0,-9.816586304E0,-5.162614288E0,1.230723349E1
1.097820342E1,-5.173092499E0,-9.287586365E0,-4.179309082E0,1.142308062E1
1.098822642E1,-5.427563324E0,-7.571854248E0,-5.391338654E0,1.076373322E1
1.099824842E1,-6.056555328E0,-5.975873108E0,-6.239624634E0,1.055110598E1
1.100827042E1,-6.991660767E0,-5.336851959E0,-6.318510590E0,1.082999932E1
1.101829342E1,-7.789801025E0,-5.543871460E0,-6.729855194E0,1.169215385E1
1.102831542E1,-8.603658600E0,-6.604266357E0,-6.719227295E0,1.275881228E1
1.103833842E1,-9.056616669E0,-8.071365509E0,-7.131020966E0,1.407198304E1
1.104836042E1,-9.422006836E0,-9.208550720E0,-7.230713654E0,1.502846762E1
1.105838342E1,-9.671238556E0,-1.005069946E1,-7.176676025E0,1.568611149E1
1.106840542E1,-9.902058563E0,-1.065678909E1,-6.882986755E0,1.609327264E1
1.107842742E1,-1.047985703E1,-1.090272766E1,-6.841073914E0,1.659810730E1
1.108845042E1,-1.058329193E1,-1.133577713E1,-7.573650513E0,1.725879756E1
1.109847242E1,-1.010473709E1,-1.125509491E1,-7.384893036E0,1.683209786E1
1.110849542E1,-8.870254211E0,-1.081486038E1,-7.621101837E0,1.592871018E1
1.111851617E1,-7.083869019E0,-1.038555313E1,-8.006101227E0,1.490431384E1
1.112853817E1,-6.188431091E0,-1.000803818E1,-7.516918488E0,1.396286400E1
1.113856117E1,-5.990243225E0,-1.009276199E1,-7.452552338E0,1.390278371E1
1.114858317E1,-6.337670746E0,-1.036938675E1,-8.030350800E0,1.456628937E1
1.115860617E1,-7.338489532E0,-1.066397415E1,-9.040300598E0,1.578926243E1
1.116862817E1,-8.609646149E0,-1.133128647E1,-8.602610779E0,1.662916029E1
1.117865117E1,-9.932295685E0,-1.237925720E1,-7.710166626E0,1.764491926E1
1.118867317E1,-1.115615067E1,-1.417686905E1,-7.142546997E0,1.940255889E1
1.119869517E1,-1.206446182E1,-1.743619125E1,-6.415808258E0,2.215253033E1
1.120871817E1,-1.235395981E1,-2.196008377E1,-5.481900330E0,2.578598133E1
1.121874017E1,-1.233420090E1,-2.711880615E1,-4.352798309E0,3.010828810E1
1.122876317E1,-1.293954208E1,-3.132505920E1,-2.851719818E0,3.401210651E1
1.123878517E1,-1.405816589E1,-3.350303009E1,-1.770967255E0,3.637611000E1
1.124880817E1,-1.476529541E1,-3.393323547E1,-2.008822632E0,3.706094692E1
1.125883017E1,-1.479927475E1,-3.287987595E1,-2.887196045E0,3.617237449E1
1.126885217E1,-1.355027206E1,-2.982787262E1,-3.144960022E0,3.291204387E1
1.127887517E1,-1.104343506E1,-2.519545578E1,-3.732937317E0,2.776154302E1
1.128889717E1,-8.103548584E0,-1.863085693E1,-6.110143890E0,2.121580043E1
1.129892017E1,-5.028193817E0,-1.221190521E1,-9.018745422E0,1.599222095E1
1.130894217E1,-2.498753815E0,-7.084767151E0,-9.728419647E0,1.229145415E1
1.131896417E1,7.396119690E-1,-3.364253998E0,-1.009785141E1,1.066920025E1
1.132898717E1,5.374124451E0,-2.525248718E-1,-1.388946671E1,1.489504172E1
1.133900917E1,8.078700256E0,2.118245087E0,-1.777299088E1,1.963750404E1
1.134903217E1,4.349056091E0,2.689906311E0,-1.454106171E1,1.541403128E1
1.135905417E1,9.098080444E-1,2.021246796E0,-9.337283020E0,9.596772556E0
1.136907717E1,-3.686833191E-1,1.837878113E0,-5.212760010E0,5.539547840E0
1.137909917E1,-9.189390564E-1,1.941612396E0,-2.606080627E0,3.377271669E0
1.138912117E1,-9.252259827E-1,1.874102783E0,-6.870712280E-1,2.200084370E0
1.139914417E1,-6.478527832E-1,2.001787262E0,1.160536652E0,2.402854717E0
1.140916617E1,-2.495310974E-1,1.916614380E0,2.836451569E0,3.432365649E0
1.141918917E1,-3.113525391E-2,1.750010834E0,3.475622406E0,3.891459679E0
1.142921117E1,-1.013392639E-1,1.651515656E0,3.765569458E0,4.113062964E0
1.143923317E1,-4.200265503E-1,1.790726166E0,4.136947174E0,4.527411449E0
1.144925617E1,-7.843688965E-1,1.923949127E0,4.123774567E0,4.617611015E0
1.145927817E1,-1.024768982E0,2.146985321E0,3.551963654E0,4.275060611E0
1.146930117E1,-9.120533752E-1,2.151326294E0,2.611319733E0,3.504145677E0
1.147932317E1,-5.343887329E-1,1.963616638E0,2.136357422E0,2.950488884E0
1.148934517E1,-1.366658020E-1,1.569336548E0,2.003882904E0,2.548929468E0
1.149936817E1,1.231938171E-1,1.191821594E0,1.982477417E0,2.316426588E0
1.150939017E1,2.540217590E-1,9.190887451E-1,1.884281616E0,2.111816371E0
1.151941317E1,3.272195435E-1,6.674620056E-1,1.639989624E0,1.800595492E0
1.152943517E1,4.010160828E-1,4.198768616E-1,1.536105652E0,1.642172662E0
1.153945817E1,4.703219604E-1,2.803669739E-1,1.380130005E0,1.484778508E0
1.154948017E1,4.887336731E-1,1.034349060E-1,1.184037781E0,1.285108886E0
1.155950217E1,5.249583435E-1,-1.480421448E-1,9.255253601E-1,1.074288104E0
1.156952517E1,6.081852722E-1,-3.510200500E-1,5.417234802E-1,8.868871010E-1
1.157954717E1,7.140151978E-1,-5.354365540E-1,4.685256958E-2,8.937030655E-1
1.158957017E1,8.599617004E-1,-7.074288940E-1,-2.980302429E-1,1.152740991E0
1.159959217E1,9.466314697E-1,-8.370593262E-1,-3.028202820E-1,1.299415091E0
1.160961417E1,9.824070740E-1,-8.702902222E-1,-1.073268127E-1,1.316832478E0
1.161963717E1,1.063388672E0,-8.207432556E-1,1.109193420E-1,1.347856839E0
1.162965917E1,1.241967316E0,-7.682025146E-1,3.296145630E-1,1.497085060E0
1.163968217E1,1.395248566E0,-6.057902527E-1,4.005670166E-1,1.572944476E0
1.164970417E1,1.384021912E0,-3.719764709E-1,1.414558411E-1,1.440101698E0
1.165972617E1,1.213227081E0,-9.205856323E-2,-4.055067444E-1,1.282509435E0
1.166974917E1,9.457333374E-1,2.067201233E-1,-8.602610779E-1,1.295065202E0
1.167977117E1,4.969665527E-1,5.418731689E-1,-1.225800934E0,1.429402048E0
1.168979417E1,8.532257080E-2,7.191046143E-1,-1.387764130E0,1.565337237E0
1.169981617E1,-2.441423035E-1,6.638694763E-1,-1.288969574E0,1.470296130E0
1.170983917E1,-4.821473694E-1,4.646337891E-1,-1.101858673E0,1.289357661E0
1.171986117E1,-5.528004456E-1,2.682421875E-1,-9.596543884E-1,1.139508117E0
1.172988317E1,-5.056484985E-1,-1.092727661E-2,-9.735754395E-1,1.097109359E0
1.173990617E1,-3.375480652E-1,-1.872605896E-1,-1.340612183E0,1.395079298E0
1.174992817E1,-1.552272034E-1,-2.944377136E-1,-2.005379791E0,2.032815082E0
1.175995117E1,-2.216889954E-1,-4.070036316E-1,-2.736908569E0,2.775872202E0
1.176997317E1,-6.996450806E-1,-4.138893127E-1,-3.348686371E0,3.445940802E0
1.177999517E1,-1.519789581E0,-6.271957397E-2,-3.603755951E0,3.911617449E0
1.179001817E1,-2.328108673E0,6.632707214E-1,-3.185226288E0,4.000710505E0
1.180004017E1,-2.998115387E0,1.483714600E0,-2.660866699E0,4.274379075E0
1.181006317E1,-4.828808441E0,2.188598785E0,-4.140689392E0,6.727010053E0
1.182008517E1,-5.538033600E0,-1.126856689E0,-8.184530182E0,9.946162901E0
1.183010717E1,-5.720055084E0,-9.264085236E0,-1.737886047E1,2.050773261E1
1.184013017E1,-6.780899048E-1,-1.286290146E1,-2.294353867E1,2.631197458E1
1.185015217E1,1.289268951E0,-1.300660263E1,-1.701586533E1,2.145631840E1
1.186017517E1,-4.170477448E0,-2.221395584E1,-5.229674835E0,2.319918566E1
1.187019717E1,-2.218117401E1,-5.155429230E1,1.640917694E1,5.847316156E1
1.188022017E1,-3.964176453E1,-7.464662155E1,4.436773682E0,8.463611856E1
1.189024217E1,-2.463846405E1,-7.761884079E1,-4.034036179E1,9.087949794E1
1.190026417E1,-1.645468231E1,-5.943929535E1,-1.461366074E1,6.338253294E1
1.191028717E1,-1.400951706E1,-3.003294617E1,-9.785151672E-1,3.315421415E1
1.192030917E1,-9.870923309E0,-1.547766403E1,-8.360414429E0,2.017150813E1
1.193033217E1,-7.090904388E0,-8.223898315E0,-7.808661804E0,1.337492534E1
1.194035417E1,-5.143304443E0,-3.497626648E0,-9.588460693E0,1.142915357E1
1.195037717E1,-3.710334320E0,-3.153941345E-1,-7.255412292E0,8.155186188E0
1.196039917E1,-4.227209473E0,3.295995941E0,-3.750301208E0,6.541991159E0
1.197042117E1,-9.187294922E0,6.870861969E0,-5.931864624E0,1.291519067E1
1.198044417E1,-1.383572845E1,1.284179535E0,-9.684710541E0,1.693724054E1
1.199046617E1,-1.554128174E1,-1.100571350E1,-1.022837997E1,2.161658911E1
1.200048917E1,-1.511242355E1,-2.310101120E1,-1.116977234E1,2.977928606E1
1.201051117E1,-1.203257812E1,-2.978416351E1,-8.400980072E0,3.320324982E1
1.202053317E1,-8.144114227E0,-2.448173996E1,-4.579876099E0,2.620414954E1
1.203055617E1,-4.777614899E0,-1.573557770E1,-4.197720795E0,1.697217928E1
1.204057817E1,-2.860401764E0,-1.013721954E1,-3.566483459E0,1.112047313E1
1.205060117E1,-1.882635040E0,-5.979016571E0,-2.570305023E0,6.774911200E0
1.206062317E1,-1.390159149E0,-3.113525391E0,-1.801354065E0,3.856353107E0
1.207064517E1,-1.137783966E0,-1.308129730E0,-9.704319763E-1,1.986830130E0
1.208066817E1,-1.260678406E0,8.367599487E-2,-9.008267212E-1,1.551708896E0
1.209069017E1,-1.336570587E0,9.166937256E-1,-8.439450073E-1,1.827290753E0
1.210071317E1,-1.463806000E0,1.471739502E0,-6.683601379E-1,2.180699530E0
1.211073517E1,-1.993554382E0,1.632355499E0,-8.659492493E-1,2.718218471E0
1.212075754E1,-2.811902618E0,7.801776123E-1,-1.059496765E0,3.104513945E0
1.213078054E1,-3.557801514E0,-2.356100464E-1,-1.500779114E0,3.868565839E0
1.214080254E1,-4.062102814E0,-1.065035248E0,-1.900897064E0,4.609597488E0
1.215082554E1,-4.378095703E0,-1.712738342E0,-2.111509094E0,5.153607015E0
1.216084754E1,-4.451742554E0,-2.117796021E0,-2.244732056E0,5.416815831E0
1.217087054E1,-4.255650330E0,-2.315534821E0,-2.454296265E0,5.431006480E0
1.218089254E1,-3.734434204E0,-2.456092529E0,-2.865042114E0,5.309129463E0
1.219091454E1,-3.147355042E0,-2.906356201E0,-2.934647369E0,5.192774336E0
1.220093754E1,-2.896776123E0,-3.820355530E0,-2.430495758E0,5.375289565E0
1.221095954E1,-2.724783783E0,-4.910239105E0,-1.844913483E0,5.910888300E0
1.222098254E1,-2.487676849E0,-6.080355835E0,-1.646426239E0,6.772738187E0
1.223100454E1,-2.413431244E0,-7.398215332E0,-2.145787811E0,8.072338310E0
1.224102654E1,-2.696642303E0,-8.998238068E0,-3.306623840E0,9.958610810E0
1.225104954E1,-3.381168823E0,-1.114672028E1,-4.745880890E0,1.257795933E1
1.226107154E1,-4.462370453E0,-1.397269363E1,-6.118077393E0,1.589275899E1
1.227109454E1,-5.768853607E0,-1.691662170E1,-6.358178101E0,1.897045573E1
1.228111654E1,-6.791826324E0,-1.924847260E1,-4.650529175E0,2.093466082E1
1.229113854E1,-6.567442932E0,-1.917781952E1,-2.169738007E0,2.038695247E1
1.230116154E1,-4.158502350E0,-1.555894501E1,-1.966161346E0,1.622466339E1
1.231118354E1,-1.839375000E0,-1.185504730E1,-2.344275055E0,1.222379125E1
1.232120654E1,-3.269201660E-1,-9.535919952E0,-2.200424194E0,9.791961640E0
1.233122854E1,7.041357422E-1,-7.813900909E0,-1.969005432E0,8.088871179E0
1.234125154E1,1.416204987E0,-6.902296600E0,-1.760189667E0,7.262616786E0
1.235127354E1,1.640887756E0,-6.661297760E0,-1.169517975E0,6.959394569E0
1.236129554E1,1.288071442E0,-6.798113251E0,-7.780819702E-1,6.962677887E0
1.237131854E1,6.484515381E-1,-7.585026855E0,-3.652404785E-1,7.621451463E0
1.238134054E1,-3.152444458E-1,-8.538693695E0,-1.212478638E-2,8.544519652E0
1.239136354E1,-1.614692230E0,-9.288634186E0,2.215393066E-2,9.427960905E0
1.240138554E1,-2.755320282E0,-9.799821167E0,-5.822891235E-2,1.017996441E1
1.241140754E1,-3.613635406E0,-9.793384552E0,-3.269201660E-1,1.044392736E1
1.242143054E1,-4.275558929E0,-9.465566254E0,-9.924362183E-1,1.043370875E1
1.243145254E1,-4.717140656E0,-8.984915771E0,-1.779499512E0,1.030275429E1
1.244147554E1,-4.856351166E0,-8.332123260E0,-2.387684784E0,9.935263625E0
1.245149754E1,-4.668491821E0,-7.758815460E0,-2.985691223E0,9.534588891E0
1.246151954E1,-4.327949982E0,-7.378157043E0,-3.740571442E0,9.335964177E0
1.247154254E1,-4.006867676E0,-7.223229218E0,-4.353696442E0,9.337274849E0
1.248156454E1,-3.748804321E0,-7.437134399E0,-4.499642944E0,9.466323919E0
1.249158754E1,-3.477568359E0,-7.875273285E0,-4.290677490E0,9.618904529E0
1.250160954E1,-3.071911926E0,-8.318800964E0,-3.874393158E0,9.677293770E0
1.251163154E1,-2.640059967E0,-8.766519928E0,-3.418740692E0,9.772900091E0
1.252165454E1,-2.219734039E0,-9.286987610E0,-2.966082001E0,9.998649934E0
1.253167654E1,-1.810934143E0,-9.746681671E0,-2.517913971E0,1.022825385E1
1.254169954E1,-1.345551910E0,-1.007988876E1,-2.264490967E0,1.041837736E1
1.255172154E1,-8.237370300E-1,-1.037702087E1,-2.237846375E0,1.064749085E1
1.256174454E1,-3.623963928E-1,-1.068433182E1,-2.233655090E0,1.092133200E1
1.257176654E1,-1.691482544E-2,-1.096529755E1,-2.080224152E0,1.116088567E1
1.258178854E1,2.363584900E-1,-1.109986771E1,-1.871258698E0,1.125897587E1
1.259181154E1,3.826043701E-1,-1.096170502E1,-1.645827484E0,1.109117267E1
1.260183354E1,4.501139832E-1,-1.054991135E1,-1.475781097E0,1.066213683E1
1.261185654E1,2.427951050E-1,-1.002225861E1,-1.383273468E0,1.012018095E1
1.262187854E1,-4.882846069E-1,-9.641600189E0,-1.223106537E0,9.731128694E0
1.263190054E1,-1.287023621E0,-9.390123138E0,-1.258582764E0,9.561112536E0
1.264192354E1,-2.028731232E0,-9.144034882E0,-1.589245148E0,9.500253916E0
1.265194554E1,-2.799478455E0,-8.988657990E0,-2.046693878E0,9.634417881E0
1.266196854E1,-3.519331512E0,-8.877588959E0,-2.414479065E0,9.850227874E0
1.267199054E1,-4.129163361E0,-8.737031250E0,-2.647993469E0,1.001985901E1
1.268201254E1,-4.674479370E0,-8.594976654E0,-2.668051758E0,1.014114793E1
1.269203554E1,-5.151986389E0,-8.448431396E0,-2.510728912E0,1.020895276E1
1.270205754E1,-5.530848541E0,-8.293503571E0,-2.233206024E0,1.021565936E1
1.271208054E1,-5.725144501E0,-8.130492554E0,-2.012265472E0,1.014551137E1
1.272210254E1,-5.668262787E0,-7.952213287E0,-1.840422821E0,9.937507502E0
1.273212454E1,-5.052443390E0,-7.800578613E0,-1.864672394E0,9.479093525E0
1.274214754E1,-4.177063751E0,-7.901468811E0,-2.104174347E0,9.181972590E0
1.275216954E1,-3.633394318E0,-8.262368317E0,-2.246528320E0,9.301353340E0
1.276219254E1,-3.249742126E0,-8.651109924E0,-2.326462097E0,9.529687964E0
1.277221454E1,-2.972368927E0,-8.968450012E0,-2.356699219E0,9.737664189E0
1.278223754E1,-2.759062500E0,-9.194479980E0,-2.353256378E0,9.883759587E0
1.279225954E1,-2.562221832E0,-9.346264343E0,-2.373614044E0,9.977558896E0
1.280228154E1,-2.398911438E0,-9.472901001E0,-2.426154785E0,1.006860748E1
1.281230454E1,-2.225422211E0,-9.586514740E0,-2.415975952E0,1.013364242E1
1.282232654E1,-2.021097107E0,-9.724976807E0,-2.273921356E0,1.018973629E1
1.283234954E1,-1.796114960E0,-9.810449066E0,-2.041305084E0,1.018026848E1
1.284237154E1,-1.554068298E0,-9.852062531E0,-1.817969513E0,1.013820879E1
1.285239354E1,-1.345102844E0,-9.844278717E0,-1.745370483E0,1.008788597E1
1.286241654E1,-1.253044281E0,-9.799521790E0,-1.694476318E0,1.002357208E1
1.287243854E1,-1.274300079E0,-9.738598480E0,-1.727557526E0,9.972391692E0
1.288246154E1,-1.379082184E0,-9.658365326E0,-1.788780212E0,9.918952721E0
1.289248354E1,-1.516496429E0,-9.585766296E0,-1.844015350E0,9.878616782E0
1.290250554E1,-1.642534332E0,-9.547745361E0,-1.931583252E0,9.878682826E0
1.291252854E1,-1.753303986E0,-9.515262909E0,-2.001338196E0,9.880266073E0
1.292255054E1,-1.860481110E0,-9.469458160E0,-2.045496368E0,9.864891444E0
1.293257354E1,-1.980531464E0,-9.396859131E0,-2.103725281E0,9.831028759E0
1.294259554E1,-2.112107849E0,-9.290131073E0,-2.158062286E0,9.768560168E0
1.295261754E1,-2.273023224E0,-9.140442352E0,-2.216291199E0,9.676066745E0
1.296264054E1,-2.465373230E0,-9.025631104E0,-2.293680267E0,9.633330221E0
1.297266254E1,-2.645598450E0,-8.963210907E0,-2.410736847E0,9.651424406E0
1.298268554E1,-2.831960907E0,-8.941655731E0,-2.473456421E0,9.700061673E0
1.299270754E1,-3.051404572E0,-8.920549622E0,-2.440824280E0,9.738834559E0
1.300272954E1,-3.201093292E0,-8.897946625E0,-2.370320892E0,9.748788311E0
1.301275254E1,-3.200344849E0,-8.887917480E0,-2.316732330E0,9.726486158E0
1.302277454E1,-3.071762238E0,-8.892258453E0,-2.236499176E0,9.670052337E0
1.303279754E1,-2.880310364E0,-8.926986237E0,-2.145937500E0,9.622490261E0
1.304281954E1,-2.709964600E0,-9.031019897E0,-2.064806213E0,9.652287460E0
1.305284154E1,-2.600392456E0,-9.149273987E0,-1.983076172E0,9.716164187E0
1.306286454E1,-2.491718445E0,-9.243727570E0,-1.923500061E0,9.764989128E0
1.307288654E1,-2.351310425E0,-9.339827728E0,-1.953138428E0,9.827298328E0
1.308290954E1,-2.221979370E0,-9.506880341E0,-1.950893097E0,9.956101145E0
1.309293154E1,-2.166444855E0,-9.643546143E0,-1.908680878E0,1.006650526E1
1.310295354E1,-2.133064270E0,-9.695937195E0,-1.853894806E0,1.009941024E1
1.311297654E1,-2.078278198E0,-9.653724976E0,-1.820813599E0,1.004136486E1
1.312299792E1,-1.967209167E0,-9.522747345E0,-1.833088074E0,9.895091753E0
1.313302092E1,-1.841320953E0,-9.390123138E0,-1.924547882E0,9.760571702E0
1.314304292E1,-1.836680603E0,-9.387728119E0,-2.082170105E0,9.789702101E0
1.315306592E1,-1.917512512E0,-9.484576721E0,-2.196083221E0,9.922541576E0
1.316308792E1,-2.012564850E0,-9.571246490E0,-2.215243378E0,1.002828399E1
1.317310992E1,-2.124831390E0,-9.610914001E0,-2.087858276E0,1.006199426E1
1.318313292E1,-2.205513611E0,-9.633966064E0,-1.989363098E0,1.008142638E1
1.319315492E1,-2.289638672E0,-9.642498322E0,-1.927990723E0,1.009640368E1
1.320317792E1,-2.373763733E0,-9.553732910E0,-1.903591461E0,1.002657605E1
1.321319992E1,-2.459235992E0,-9.401798859E0,-1.898502045E0,9.901816675E0
1.322322192E1,-2.573897552E0,-9.261690216E0,-1.922601929E0,9.803073622E0
1.323324492E1,-2.655627594E0,-9.156758423E0,-1.983225861E0,9.738160378E0
1.324326692E1,-2.711611176E0,-9.083111572E0,-2.086810455E0,9.706210840E0
1.325328992E1,-2.739004211E0,-9.036558380E0,-2.204166412E0,9.696384945E0
1.326331192E1,-2.737207947E0,-8.996591492E0,-2.266736298E0,9.673110113E0
1.327333392E1,-2.709066467E0,-8.998986511E0,-2.264341278E0,9.666852682E0
1.328335692E1,-2.669997711E0,-9.034313049E0,-2.169438629E0,9.667169390E0
1.329337892E1,-2.606080627E0,-9.065448303E0,-2.064955902E0,9.655985297E0
1.330340192E1,-2.525099030E0,-9.083111572E0,-2.071991272E0,9.652574205E0
1.331342392E1,-2.456541595E0,-9.102421417E0,-2.149979095E0,9.670112842E0
1.332344592E1,-2.459086304E0,-9.120833130E0,-2.196382599E0,9.698494675E0
1.333346892E1,-2.492766266E0,-9.151369629E0,-2.183509369E0,9.732890778E0
1.334349092E1,-2.513123932E0,-9.225166168E0,-2.149679718E0,9.800030899E0
1.335351392E1,-2.526446228E0,-9.297465820E0,-2.121987305E0,9.865527424E0
1.336353592E1,-2.550546112E0,-9.365424500E0,-2.021246796E0,9.914731471E0
1.337355792E1,-2.521506500E0,-9.419761505E0,-1.937870178E0,9.942094481E0
1.338358092E1,-2.471360779E0,-9.403146057E0,-1.984273682E0,9.922908944E0
1.339360292E1,-2.389331360E0,-9.349557495E0,-2.094893646E0,9.874801724E0
1.340362592E1,-2.298021240E0,-9.284442902E0,-2.162253571E0,9.805973797E0
1.341364792E1,-2.210603027E0,-9.248517609E0,-2.127076721E0,9.744039156E0
1.342366992E1,-2.149979095E0,-9.232201538E0,-2.016905823E0,9.691432528E0
1.343369292E1,-2.147135010E0,-9.248068542E0,-1.866917725E0,9.675863905E0
1.344371492E1,-2.175276489E0,-9.293723602E0,-1.775607605E0,9.708651223E0
1.345373792E1,-2.242486725E0,-9.366771698E0,-1.792223053E0,9.796796529E0
1.346375992E1,-2.337389374E0,-9.395661621E0,-1.892813873E0,9.865322637E0
1.347378192E1,-2.429148560E0,-9.361981659E0,-1.998194733E0,9.876246529E0
1.348380492E1,-2.470762024E0,-9.282646637E0,-1.955982513E0,9.802961856E0
1.349382692E1,-2.410138092E0,-9.228309631E0,-1.919907532E0,9.729157682E0
1.350384992E1,-2.336341553E0,-9.240733795E0,-1.942360840E0,9.727405541E0
1.351387192E1,-2.317031708E0,-9.289981384E0,-1.972747650E0,9.775690428E0
1.352389392E1,-2.348765717E0,-9.314530334E0,-1.973196716E0,9.806665133E0
1.353391692E1,-2.373614044E0,-9.288334808E0,-1.931732941E0,9.779509154E0
1.354393892E1,-2.377356262E0,-9.278455353E0,-1.927391968E0,9.770178930E0
1.355396192E1,-2.345472565E0,-9.277557220E0,-1.964963837E0,9.769103972E0
1.356398392E1,-2.308349762E0,-9.312434692E0,-1.996997223E0,9.799893695E0
1.357400592E1,-2.254761200E0,-9.286239166E0,-2.009421387E0,9.765037646E0
1.358402892E1,-2.207908630E0,-9.205107880E0,-1.971849518E0,9.669387887E0
1.359405092E1,-2.189347229E0,-9.105415192E0,-1.911225586E0,9.557960574E0
1.360407392E1,-2.198927307E0,-9.009315033E0,-1.890718231E0,9.464557787E0
1.361409592E1,-2.206411743E0,-8.942104797E0,-1.955533447E0,9.415604179E0
1.362411792E1,-2.213147736E0,-8.909472656E0,-2.079326019E0,9.412774437E0
1.363414092E1,-2.196681976E0,-8.922196198E0,-2.279310150E0,9.467114209E0
1.364416292E1,-2.186054077E0,-8.944649506E0,-2.527793427E0,9.548577214E0
1.365418592E1,-2.178719330E0,-8.913065186E0,-2.760858765E0,9.581852119E0
1.366420792E1,-2.202519836E0,-8.865164795E0,-2.922073517E0,9.590659733E0
1.367422992E1,-2.249671783E0,-8.744964752E0,-3.007246399E0,9.517298070E0
1.368425292E1,-2.329306183E0,-8.542435913E0,-3.033591614E0,9.359570327E0
1.369427492E1,-2.397863617E0,-8.282276917E0,-3.052602081E0,9.146815857E0
1.370429792E1,-2.472109222E0,-7.970625000E0,-3.100203094E0,8.902440459E0
1.371431992E1,-2.539618835E0,-7.641160126E0,-3.125949554E0,8.637624240E0
1.372434192E1,-2.568957825E0,-7.307354279E0,-2.997516632E0,8.305544944E0
1.373436492E1,-2.678380280E0,-6.758745117E0,-2.803669739E0,7.791977957E0
1.374438692E1,-3.010689240E0,-5.836812286E0,-2.837499390E0,7.154301514E0
1.375440992E1,-3.302133179E0,-5.197641449E0,-3.121309204E0,6.903776598E0
1.376443192E1,-3.357967072E0,-4.985083466E0,-3.217409363E0,6.817530566E0
1.377445392E1,-3.045117645E0,-4.875361633E0,-3.618425446E0,6.792267312E0
1.378447692E1,-2.608775024E0,-5.149291992E0,-3.876339111E0,6.953194953E0
1.379449892E1,-2.454445953E0,-5.588927765E0,-2.483934631E0,6.590170692E0
1.380452192E1,-2.309247894E0,-5.611979828E0,-9.633966064E-1,6.144515965E0
1.381454392E1,-1.692680054E0,-5.545518036E0,-3.079096985E-1,5.806267685E0
1.382456592E1,-4.331991577E-1,-5.627397766E0,-6.155200195E-1,5.677511076E0
1.383458892E1,7.057823181E-1,-5.790109406E0,-3.034190369E-1,5.840852568E0
1.384461092E1,1.218017120E0,-5.227579193E0,8.912466431E-1,5.441090930E0
1.385463392E1,1.258882141E0,-3.863765259E0,1.010398865E0,4.187406367E0
1.386465592E1,9.925859070E-1,-2.778372345E0,-2.210902405E-1,2.958624776E0
1.387467792E1,3.924838257E-1,-2.538571014E0,-2.151026917E0,3.350418354E0
1.388470092E1,-2.580184479E0,-3.615431671E0,-3.169808350E0,5.456774055E0
1.389472292E1,-6.822362823E0,-5.260810089E0,-4.351451111E0,9.651729589E0
1.390474592E1,-1.002689896E1,-7.057224426E0,-8.402177582E0,1.486404075E1
1.391476792E1,-1.187735092E1,-9.210646362E0,-9.824370117E0,1.795621674E1
1.392478992E1,-1.292292664E1,-1.116932327E1,-8.628207550E0,1.913639937E1
1.393481292E1,-1.299926788E1,-1.237776031E1,-6.195765839E0,1.898887649E1
1.394483492E1,-1.092877350E1,-1.124461670E1,-5.905519409E0,1.675573497E1
1.395485792E1,-7.946674805E0,-8.144114227E0,-6.305787048E0,1.300919626E1
1.396487992E1,-6.243965607E0,-5.691614227E0,-5.888903961E0,1.029858092E1
1.397490192E1,-5.777236176E0,-4.607269135E0,-5.317093048E0,9.103563324E0
1.398492492E1,-6.081852722E0,-4.478836212E0,-6.049220581E0,9.676878422E0
1.399494692E1,-6.445446625E0,-4.693789215E0,-7.419022064E0,1.089115824E1
1.400496992E1,-7.211703186E0,-5.066364441E0,-6.757547607E0,1.110590659E1
1.401499192E1,-8.175548859E0,-5.585784302E0,-6.837481384E0,1.203294382E1
1.402501392E1,-9.293723602E0,-6.490652618E0,-7.343878326E0,1.350682859E1
1.403503692E1,-1.070962921E1,-7.405849457E0,-7.483238525E0,1.501804324E1
1.404505892E1,-1.210802124E1,-8.360863495E0,-8.042774963E0,1.676885344E1
1.405508192E1,-1.299537598E1,-9.401349792E0,-8.676706696E0,1.823596484E1
1.406510392E1,-1.351389771E1,-1.033271301E1,-9.241781616E0,1.935977574E1
1.407512592E1,-1.365595230E1,-1.097113541E1,-9.609117737E0,1.997963936E1
1.408514892E1,-1.342228821E1,-1.107127716E1,-9.632469177E0,1.988757052E1
1.409517092E1,-1.330538132E1,-1.049258057E1,-9.278305664E0,1.931875708E1
1.410519392E1,-1.281006134E1,-1.019080811E1,-1.054512131E1,1.947176994E1
1.411521592E1,-1.274973679E1,-9.957443390E0,-1.043614792E1,1.925148437E1
1.412523792E1,-1.303309753E1,-1.024245071E1,-9.217532043E0,1.896661079E1
1.413526092E1,-1.322948914E1,-1.128084137E1,-7.984845428E0,1.913202868E1
1.414528292E1,-1.325613373E1,-1.250125351E1,-6.364764404E0,1.930069032E1
1.415530592E1,-1.322065750E1,-1.382674713E1,-4.258644104E0,1.959848899E1
1.416532792E1,-1.307830353E1,-1.561822174E1,-2.095043335E0,2.047828313E1
1.417534992E1,-1.278760803E1,-1.811233521E1,-9.786648560E-1,2.219318343E1
1.418537292E1,-1.265423538E1,-2.050825287E1,1.317260742E-2,2.409809707E1
1.419539492E1,-1.289343796E1,-2.257261002E1,1.178199921E0,2.602213712E1
1.420541792E1,-1.330747696E1,-2.496792892E1,1.482068024E0,2.833165974E1
1.421543992E1,-1.374831024E1,-2.732642441E1,8.217910767E-1,3.060105956E1
1.422546192E1,-1.392928391E1,-3.009626450E1,2.942880249E-1,3.316469044E1
1.423548492E1,-1.222507782E1,-3.251224045E1,-2.849324799E0,3.485135519E1
1.424550692E1,-8.146658936E0,-3.311084564E1,-9.061556396E0,3.528183605E1
1.425552992E1,-3.231031036E0,-3.089455444E1,-1.568977295E1,3.480060389E1
1.426555192E1,1.283131714E0,-2.256288025E1,-1.564321976E1,2.748527454E1
1.427557392E1,5.345683594E0,-1.449540665E1,-1.671933197E1,2.276464822E1
1.428559692E1,8.053702240E0,-8.616382141E0,-1.830812805E1,2.177823945E1
1.429561892E1,4.399052124E0,-4.333338776E0,-1.350326981E1,1.484815746E1
1.430564192E1,5.020559692E-1,-4.972659302E-1,-1.128772705E1,1.130982385E1
1.431566392E1,-1.496438141E0,2.765050049E0,-6.529122620E0,7.246673103E0
1.432568592E1,-2.892435150E0,3.454665985E0,-5.162763977E-1,4.535133899E0
1.433570892E1,-2.650238800E0,3.524271240E0,1.930685120E0,4.813709433E0
1.434573092E1,-1.791324921E0,3.202141113E0,1.193468170E0,3.858357028E0
1.435575392E1,-1.315614166E0,2.835852814E0,-1.227447510E-2,3.126188171E0
1.436577592E1,-5.460644531E-1,2.343077545E0,-4.122427368E-1,2.440930733E0
1.437579792E1,2.516267395E-1,1.847607880E0,-4.071533203E-1,1.908597579E0
1.438582092E1,7.310797119E-1,1.581461334E0,-3.565585327E-1,1.778378892E0
1.439584292E1,9.617500305E-1,1.633253632E0,-3.445834351E-1,1.926452255E0
1.440586592E1,6.947053528E-1,1.741328888E0,-7.694000244E-2,1.876369257E0
1.441588792E1,5.478607178E-2,1.910028076E0,3.568579102E-1,1.943850903E0
1.442590992E1,-5.575904846E-1,2.098785553E0,2.285746765E-1,2.183587491E0
1.443593292E1,-1.075064392E0,2.042951660E0,1.076261902E-1,2.311060001E0
1.444595492E1,-1.432221680E0,1.804796906E0,5.807922363E-1,2.376104045E0
1.445597792E1,-1.618883514E0,1.630708923E0,1.179098053E0,2.582686130E0
1.446599992E1,-1.716480560E0,1.501078491E0,1.799108734E0,2.904536863E0
1.447602192E1,-1.630559235E0,1.342109070E0,2.413580933E0,3.207078591E0
1.448604492E1,-1.398392029E0,1.073866882E0,3.031196594E0,3.506685492E0
1.449606692E1,-9.994715881E-1,5.869294739E-1,3.746858368E0,3.922037390E0
1.450608892E1,-4.459226990E-1,5.343887329E-2,4.187541962E0,4.211556772E0
1.451611192E1,-1.532812500E-1,-4.053570557E-1,4.271517334E0,4.293444983E0
1.452613392E1,-1.413061523E-1,-6.812333679E-1,4.493206329E0,4.546751527E0
1.453615692E1,-6.885681152E-2,-7.993377686E-1,4.483925629E0,4.555136790E0
1.454617892E1,1.152603149E-1,-9.207353210E-1,4.146676941E0,4.249231475E0
1.455620092E1,3.035687256E-1,-8.635542297E-1,3.439248047E0,3.558975556E0
1.456622392E1,4.691244507E-1,-7.297325134E-1,2.416275330E0,2.567289185E0
1.457624592E1,6.483018494E-1,-6.330335999E-1,1.406624908E0,1.673206640E0
1.458626892E1,9.369017029E-1,-5.912704468E-1,3.703298950E-1,1.168130889E0
1.459629092E1,1.217418365E0,-5.113366699E-1,-5.989045715E-1,1.449917016E0
1.460631292E1,1.301842804E0,-2.869532776E-1,-1.351689148E0,1.898473182E0
1.461633592E1,1.329235840E0,-6.945556641E-2,-2.000589752E0,2.402925581E0
1.462635792E1,1.380279694E0,6.541397095E-2,-2.527344360E0,2.880437560E0
1.463638092E1,1.360520782E0,5.703140259E-2,-2.653681641E0,2.982665860E0
1.464640292E1,1.197659454E0,-3.143463135E-2,-1.999541931E0,2.330996405E0
1.465642492E1,1.004860382E0,-1.392105103E-1,-8.171507263E-1,1.302635507E0
1.466644792E1,8.707392883E-1,-1.887574768E-1,8.711883545E-2,8.952128154E-1
1.467646992E1,7.999365234E-1,-3.192860413E-1,7.057823181E-1,1.113539716E0
1.468649292E1,7.747888184E-1,-4.453239441E-1,1.169667664E0,1.471982871E0
1.469651492E1,7.197033691E-1,-4.385879517E-1,1.371897125E0,1.610103740E0
1.470653692E1,7.629634094E-1,-4.974156189E-1,1.325343933E0,1.608126862E0
1.471655992E1,8.860075378E-1,-6.858737183E-1,1.346899109E0,1.752018643E0
1.472658192E1,4.032614136E-1,-3.308120728E-1,1.880240021E0,1.951245482E0
1.473660492E1,-5.005590820E-1,3.204835510E-1,1.588197327E0,1.695771167E0
1.474662692E1,-1.318757629E0,7.354206848E-1,3.207829285E-1,1.543653768E0
1.475664892E1,-2.004481659E0,1.112187195E0,-1.529369659E0,2.755699300E0
1.476667192E1,-2.565964050E0,1.716630249E0,-4.154909821E0,5.176317855E0
1.477669392E1,-3.216810608E0,2.530487823E0,-7.096592560E0,8.192244202E0
1.478671692E1,-3.251239014E0,2.923720093E0,-7.113806763E0,8.350146164E0
1.479673892E1,-2.205663300E0,2.573897552E0,-7.263495483E0,8.015501596E0
1.480676092E1,-3.361858978E0,1.643432465E0,-1.520672745E1,1.566038077E1
1.481678392E1,-6.163283386E0,-8.349636841E0,-4.755805252E1,4.867721086E1
1.482680592E1,-2.777923279E0,-1.319057007E1,-2.721281067E1,3.036848796E1
1.483682792E1,-1.805245972E0,-1.273761200E1,-7.245383148E0,1.476486537E1
1.484685092E1,-3.094365234E0,-1.316242859E1,-3.408711548E0,1.394431558E1
1.485687292E1,-1.252984406E1,-2.871388916E1,2.432890778E0,3.142297536E1
1.486689592E1,-2.283905594E1,-6.357145248E1,7.551646271E0,6.797043040E1
1.487691792E1,-2.949795868E1,-7.453525314E1,2.080538498E1,8.281604658E1
1.488693992E1,-2.283052368E1,-7.187019516E1,-2.437695786E1,7.925145953E1
1.489696292E1,-1.384411102E1,-5.084207336E1,-3.742607208E1,6.463193255E1
1.490698492E1,-1.335058731E1,-2.767684570E1,-1.423779236E1,3.386680825E1
1.491700792E1,-1.368813538E1,-1.634960083E1,-1.863774261E0,2.140439562E1
1.492702992E1,-1.621024063E1,-6.077062683E0,2.817740479E0,1.753973357E1
1.493705192E1,-1.874851227E1,1.850451965E0,-3.505560150E0,1.916298089E1
1.494707492E1,-2.107572281E1,2.707419891E0,-1.255993149E1,2.468335661E1
1.495709692E1,-2.122615997E1,-9.092991028E0,-1.856634109E1,2.963007551E1
1.496711992E1,-1.920611069E1,-1.852143448E1,-1.433074905E1,3.028677255E1
1.497714192E1,-1.169038971E1,-1.623089767E1,-5.183570709E0,2.066341347E1
1.498716392E1,-5.343138885E0,-1.195473999E1,-1.198707275E0,1.314921444E1
1.499718692E1,-1.680405579E0,-9.772727509E0,-4.243675232E-1,9.925223104E0
1.500720892E1,5.213658142E-1,-8.611292725E0,-5.107379150E-1,8.642166275E0
1.501723192E1,1.513802032E0,-7.298822021E0,-1.033151550E0,7.525410395E0
1.502725392E1,1.620679779E0,-5.692063293E0,-1.068927155E0,6.014049613E0
1.503727592E1,1.227447510E0,-4.103267212E0,-7.779322815E-1,4.352999866E0
1.504729892E1,7.791297913E-1,-2.746937714E0,-5.550457764E-1,2.908743001E0
1.505732092E1,2.583627319E-1,-1.578617249E0,-3.061134338E-1,1.628646417E0
1.506734392E1,-5.201683044E-1,-3.264710999E-1,-6.243516541E-1,8.757701935E-1
1.507736592E1,-2.100581818E0,-2.728825378E-1,-1.539398804E0,2.618522012E0
1.508738792E1,-3.703448639E0,-1.127305756E0,-2.396516418E0,4.552981554E0
1.509741092E1,-4.750072174E0,-1.526076508E0,-3.342848511E0,6.005558370E0
1.510743292E1,-5.827681274E0,-1.862876129E0,-3.838168488E0,7.222445143E0
1.511745592E1,-6.802005157E0,-2.283351746E0,-3.731141052E0,8.087173975E0
1.512748271E1,-7.399263153E0,-2.734513550E0,-3.313808899E0,8.556166722E0
1.513750471E1,-7.634573822E0,-3.099155273E0,-2.871179352E0,8.725545927E0
1.514752771E1,-7.579488373E0,-3.457510071E0,-2.462828522E0,8.687263333E0
1.515754971E1,-7.416776733E0,-3.936214600E0,-2.254012756E0,8.693844719E0
1.516757271E1,-6.950346680E0,-4.495301971E0,-2.453098755E0,8.633235331E0
1.517759471E1,-5.628146210E0,-5.463338928E0,-3.292553101E0,8.506762482E0
1.518761671E1,-4.199666748E0,-6.774462433E0,-4.109554138E0,8.967662865E0
1.519763971E1,-3.500171356E0,-7.969277802E0,-4.420307922E0,9.762157053E0
1.520766171E1,-3.003504181E0,-9.093440094E0,-4.354893951E0,1.052030377E1
1.521768371E1,-2.563269653E0,-1.010638367E1,-3.887865143E0,1.112766092E1
1.522770671E1,-2.197131042E0,-1.100436630E1,-3.279979248E0,1.169109603E1
1.523772871E1,-1.821861420E0,-1.177211975E1,-2.770887909E0,1.223028218E1
1.524775171E1,-1.394350433E0,-1.223121506E1,-2.253713379E0,1.251503332E1
1.525777371E1,-9.550140381E-1,-1.229498245E1,-1.981878662E0,1.249025574E1
1.526779571E1,-5.861810303E-1,-1.184546722E1,-2.026036835E0,1.203177157E1
1.527781871E1,-4.200265503E-1,-1.101589233E1,-1.938768311E0,1.119308397E1
1.528784071E1,-4.159849548E-1,-1.006402176E1,-1.775757294E0,1.022794659E1
1.529786371E1,-4.809498596E-1,-9.321715393E0,-1.550326080E0,9.461987190E0
1.530788571E1,-7.795788574E-1,-8.996142426E0,-1.301094360E0,9.123111765E0
1.531790771E1,-1.375040588E0,-8.978928223E0,-1.052162018E0,9.144338880E0
1.532793071E1,-2.019450531E0,-9.060658264E0,-8.455915833E-1,9.321412648E0
1.533795271E1,-2.749781799E0,-9.194330292E0,-7.023394775E-1,9.622384850E0
1.534797571E1,-3.503314819E0,-9.303902435E0,-6.694079590E-1,9.964131787E0
1.535799771E1,-4.127067719E0,-9.287586365E0,-6.801855469E-1,1.018600024E1
1.536801971E1,-4.406237183E0,-9.245224457E0,-8.782237244E-1,1.027912342E1
1.537804271E1,-4.205953674E0,-9.222621460E0,-1.340163116E0,1.022461882E1
1.538806471E1,-3.784430237E0,-9.068142700E0,-1.916165314E0,1.001123438E1
1.539808771E1,-3.335364075E0,-8.751700745E0,-2.412383423E0,9.671427672E0
1.540810971E1,-2.937790833E0,-8.438402252E0,-2.747087402E0,9.347926869E0
1.541813171E1,-2.632874908E0,-8.238268433E0,-3.021616516E0,9.161400735E0
1.542815471E1,-2.388433228E0,-8.261619873E0,-3.212619324E0,9.180408440E0
1.543817671E1,-2.209555206E0,-8.497379608E0,-3.222798157E0,9.352754801E0
1.544819971E1,-2.050136719E0,-8.839118958E0,-2.949915619E0,9.541230878E0
1.545822171E1,-1.867815857E0,-9.171577606E0,-2.601140900E0,9.714551242E0
1.546824371E1,-1.632205811E0,-9.416468353E0,-2.346221008E0,9.840666902E0
1.547826671E1,-1.348096619E0,-9.643246765E0,-2.243235168E0,9.992080699E0
1.548828871E1,-1.158291321E0,-9.804611206E0,-2.115700378E0,1.009694151E1
1.549831071E1,-1.060394897E0,-9.892328796E0,-1.955683136E0,1.013939362E1
1.550833371E1,-1.052760773E0,-9.946815491E0,-1.762135620E0,1.015640515E1
1.551835571E1,-1.091230774E0,-9.973160706E0,-1.596430206E0,1.015890292E1
1.552837871E1,-1.142723694E0,-9.929301910E0,-1.482966156E0,1.010425863E1
1.553840071E1,-1.212328949E0,-9.794731750E0,-1.366658020E0,9.963647208E0
1.554842271E1,-1.291514282E0,-9.667047272E0,-1.225351868E0,9.829613385E0
1.555844571E1,-1.402433624E0,-9.591604156E0,-1.105600891E0,9.756436014E0
1.556846771E1,-1.530118103E0,-9.566606140E0,-1.033450928E0,9.743163514E0
1.557849071E1,-1.622476044E0,-9.621541901E0,-1.085692291E0,9.817597711E0
1.558851271E1,-1.693877563E0,-9.652976532E0,-1.243015137E0,9.878980907E0
1.559853471E1,-1.821112976E0,-9.604028320E0,-1.458566895E0,9.883381498E0
1.560855771E1,-2.054328003E0,-9.461674347E0,-1.679058380E0,9.826636354E0
1.561857971E1,-2.325713654E0,-9.258846130E0,-1.961221619E0,9.745848650E0
1.562860271E1,-2.597248993E0,-9.112450562E0,-2.307751007E0,9.752341887E0
1.563862471E1,-2.871029663E0,-9.029822388E0,-2.548001404E0,9.811871118E0
1.564864671E1,-3.099454651E0,-8.938362579E0,-2.605631561E0,9.812760089E0
1.565866971E1,-3.181633759E0,-8.832682343E0,-2.505040741E0,9.716702108E0
1.566869171E1,-3.065026245E0,-8.746910706E0,-2.380499725E0,9.569201206E0
1.567871371E1,-2.800675964E0,-8.713530121E0,-2.254461823E0,9.426133414E0
1.568873671E1,-2.527943115E0,-8.821605377E0,-2.096390533E0,9.413079788E0
1.569875871E1,-2.324965210E0,-9.036708069E0,-1.972148895E0,9.537134120E0
1.570878171E1,-2.179467773E0,-9.280251617E0,-1.870959320E0,9.714609546E0
1.571880371E1,-2.076032867E0,-9.499695282E0,-1.794019318E0,9.888004259E0
1.572882571E1,-2.000889130E0,-9.645342407E0,-1.796564026E0,1.001318280E1
1.573884871E1,-1.943708038E0,-9.714648285E0,-1.788480835E0,1.006732616E1
1.574887071E1,-1.906136169E0,-9.700876923E0,-1.703158264E0,1.003200460E1
1.575889371E1,-1.829196167E0,-9.622739410E0,-1.624272308E0,9.928813268E0
1.576891571E1,-1.726809082E0,-9.516460419E0,-1.631457367E0,9.808493342E0
1.577893771E1,-1.615440674E0,-9.463320923E0,-1.725012817E0,9.753961281E0
1.578896071E1,-1.507365417E0,-9.513316956E0,-1.798959045E0,9.798551099E0
1.579898271E1,-1.460812225E0,-9.609566803E0,-1.828298035E0,9.890420628E0
1.580900571E1,-1.449136505E0,-9.698481903E0,-1.823657684E0,9.974280685E0
1.581902771E1,-1.477128296E0,-9.741143188E0,-1.794318695E0,1.001455731E1
1.582904971E1,-1.517394562E0,-9.661508789E0,-1.719474335E0,9.929946139E0
1.583907271E1,-1.588347015E0,-9.535919952E0,-1.655407562E0,9.808006412E0
1.584909471E1,-1.666185150E0,-9.455537109E0,-1.642983398E0,9.740777660E0
1.585911771E1,-1.734293518E0,-9.416318665E0,-1.689686279E0,9.722647321E0
1.586913971E1,-1.812131653E0,-9.434281311E0,-1.778751068E0,9.770027653E0
1.587916171E1,-1.909279633E0,-9.478140106E0,-1.871707764E0,9.848034248E0
1.588918471E1,-1.988914032E0,-9.506281586E0,-2.064357147E0,9.929085509E0
1.589920671E1,-2.081421661E0,-9.508227539E0,-2.281405792E0,9.997175574E0
1.590922871E1,-2.205663300E0,-9.447902985E0,-2.411485291E0,9.997153730E0
1.591925171E1,-2.336042175E0,-9.376800842E0,-2.396815796E0,9.956214795E0
1.592927371E1,-2.425556030E0,-9.314081268E0,-2.216141510E0,9.876574058E0
1.593929671E1,-2.456691284E0,-9.257648621E0,-2.002685394E0,9.785199990E0
1.594931871E1,-2.418820038E0,-9.190139008E0,-1.792073364E0,9.670619023E0
1.595934071E1,-2.332898712E0,-9.120683441E0,-1.584305420E0,9.546690866E0
1.596936371E1,-2.211950226E0,-9.096882935E0,-1.434467010E0,9.471203647E0
1.597938571E1,-2.075883179E0,-9.116342468E0,-1.419198761E0,9.456802636E0
1.598940871E1,-1.992656250E0,-9.166039124E0,-1.561552734E0,9.509227050E0
1.599943071E1,-1.945354614E0,-9.261390839E0,-1.757944336E0,9.625390025E0
1.600945271E1,-1.956730957E0,-9.377998352E0,-1.952389984E0,9.776884769E0
1.601947571E1,-1.986668701E0,-9.492659912E0,-2.058219910E0,9.914318632E0
1.602949771E1,-1.998344421E0,-9.581425323E0,-2.102228394E0,1.001081694E1
1.603951971E1,-1.968107300E0,-9.608968048E0,-2.086211700E0,1.002786082E1
1.604954271E1,-1.931732941E0,-9.600435791E0,-1.955533447E0,9.986193999E0
1.605956471E1,-1.894310760E0,-9.594448242E0,-1.723216553E0,9.930323540E0
1.606958771E1,-1.833986206E0,-9.547445984E0,-1.543889465E0,9.843821661E0
1.607960971E1,-1.713935852E0,-9.497300262E0,-1.476080475E0,9.762945352E0
1.608963171E1,-1.594184875E0,-9.454339600E0,-1.512155457E0,9.706316336E0
1.609965471E1,-1.521885223E0,-9.440717926E0,-1.657353516E0,9.705158951E0
1.610967671E1,-1.512903900E0,-9.467362518E0,-1.776356049E0,9.750654956E0
1.611969971E1,-1.567390594E0,-9.501940613E0,-1.827998657E0,9.802304207E0
1.612971692E1,-1.611099701E0,-9.540560303E0,-1.843865662E0,9.849760084E0
1.613973892E1,-1.648521881E0,-9.576784973E0,-1.825154572E0,9.887548939E0
1.614976192E1,-1.690285034E0,-9.620643768E0,-1.781445465E0,9.929118690E0
1.615978392E1,-1.783092041E0,-9.646988983E0,-1.671424255E0,9.951757267E0
1.616980592E1,-1.866468658E0,-9.622140656E0,-1.571881256E0,9.926736963E0
1.617982892E1,-1.905687103E0,-9.527088318E0,-1.536105652E0,9.836497127E0
1.618985092E1,-1.921404419E0,-9.420060883E0,-1.550176392E0,9.738192277E0
1.619987392E1,-1.913470917E0,-9.343420258E0,-1.628912659E0,9.675444667E0
1.620989592E1,-1.891316986E0,-9.306746521E0,-1.752256165E0,9.657277692E0
1.621991792E1,-1.886676636E0,-9.326655121E0,-1.860481110E0,9.695743109E0
1.622994092E1,-1.913919983E0,-9.408534851E0,-1.945204926E0,9.796297257E0
1.623996292E1,-1.933080139E0,-9.484726410E0,-2.056872711E0,9.895835450E0
1.624998592E1,-1.958976288E0,-9.516460419E0,-2.068847809E0,9.933817909E0
1.626000792E1,-2.014510803E0,-9.504185944E0,-1.999242554E0,9.918909971E0
1.627002992E1,-2.056723022E0,-9.473799133E0,-1.864223328E0,9.872097458E0
1.628005292E1,-2.022743683E0,-9.403894501E0,-1.774709473E0,9.781324936E0
1.629007492E1,-1.951641541E0,-9.363777924E0,-1.730102234E0,9.720210669E0
1.630009792E1,-1.872007141E0,-9.364526367E0,-1.698068848E0,9.699598065E0
1.631011992E1,-1.821711731E0,-9.389823761E0,-1.597478027E0,9.697389336E0
1.632014192E1,-1.797013092E0,-9.411977692E0,-1.497635651E0,9.698324219E0
1.633016492E1,-1.749112701E0,-9.391320648E0,-1.430874481E0,9.659384066E0
1.634018692E1,-1.680555267E0,-9.373058624E0,-1.455722809E0,9.633152281E0
1.635020892E1,-1.605261841E0,-9.398954773E0,-1.545835419E0,9.659545721E0
1.636023192E1,-1.533411255E0,-9.491312714E0,-1.698667603E0,9.763290364E0
1.637025392E1,-1.471290436E0,-9.618398438E0,-1.887874146E0,9.911728045E0
1.638027692E1,-1.481768646E0,-9.754615173E0,-1.996398468E0,1.006646722E1
1.639029892E1,-1.562450867E0,-9.829309845E0,-1.967658234E0,1.014535675E1
1.640032092E1,-1.625020752E0,-9.818083191E0,-1.852846985E0,1.012267217E1
1.641034392E1,-1.634600830E0,-9.701475677E0,-1.691632233E0,9.982593341E0
1.642036592E1,-1.609453125E0,-9.533824310E0,-1.504521332E0,9.785076892E0
1.643038892E1,-1.623823242E0,-9.368717651E0,-1.346599731E0,9.603280856E0
1.644041092E1,-1.644031219E0,-9.204509125E0,-1.261875916E0,9.434943439E0
