Time (s),Acceleration x (m/s^2),Acceleration y (m/s^2),Acceleration z (m/s^2),Absolute acceleration (m/s^2)
-0.001089542,-1.808389435,4.276906128,3.992796936,6.124102036
0.008972458,-2.34607132,3.933370514,4.399201813,6.350466977
0.019035458,-2.628983002,3.841012573,4.943320313,6.789797119
0.029097458,-2.368973694,3.824546814,5.200784912,6.876580429
0.039160458,-1.846110992,4.037853241,5.201832733,6.838965446
0.049223458,-1.392254791,4.406237183,5.134023743,6.907351106
0.059285458,-0.969833221,4.766837311,5.075196075,7.030002107
0.069348458,-0.61072998,5.022206268,5.116659851,7.195537155
0.079410458,-0.408799896,5.118905182,5.14959137,7.272454805
0.089473458,-0.353265381,5.073399811,5.161416779,7.245992357
0.099535458,-0.452059937,5.083129578,5.188809814,7.277795805
0.109598458,-0.559386749,5.112318878,5.295986938,7.382153852
0.119660458,-0.649050293,5.068310394,5.464536438,7.481323079
0.129723458,-0.718655548,4.965025177,5.730832672,7.616454813
0.139785458,-0.791404266,4.902904358,6.140680389,7.897641895
0.149848458,-0.814156952,4.904101868,6.495592346,8.179595748
0.159911458,-0.883013763,4.964426422,6.883884888,8.53306007
0.169973458,-1.056203613,5.01262619,7.487729187,9.07237983
0.180036458,-1.165326691,5.038821716,8.000562744,9.526631871
0.190098458,-1.114582214,4.948110352,8.339907074,9.761154623
0.200161458,-0.999770966,4.741689606,8.517288208,9.799355117
0.210223458,-0.899479523,4.463567963,8.63644043,9.763227216
0.220286458,-0.815953217,4.238136749,8.854686584,9.850535887
0.230348458,-0.780327301,4.110751648,9.151519318,10.06267835
0.240411458,-0.645308075,4.145928497,9.506730652,10.39149043
0.250474458,-0.418379974,4.227059784,9.856553192,10.73288018
0.260536458,-0.216749268,4.326453094,10.19230499,11.07466738
0.270599458,-0.110919342,4.380191345,10.54646851,11.42043682
0.280661458,-0.106877747,4.27076889,10.81605789,11.62918734
0.290724458,-0.014519806,4.000281372,10.95437027,11.66193337
0.300786458,0.106278992,3.499273224,11.02397552,11.56651394
0.310849458,0.154179382,2.946772156,11.39206009,11.76801897
0.320911458,0.155376892,2.552042999,12.13571365,12.40212124
0.330974458,-0.011226654,2.382894745,13.07920166,13.29450373
0.341037458,-0.175285492,2.36702774,14.08181671,14.28044492
0.351099458,-0.189056854,2.186203766,14.85944962,15.02060159
0.361162458,-0.088615723,1.660796356,15.18846542,15.27925323
0.371224458,0.103883972,0.955762482,15.09670624,15.12728703
0.381287458,0.251477051,0.191002808,14.59884155,14.60225659
0.391349458,0.114212494,-0.463885345,13.9319783,13.94016691
0.401412458,-0.137863312,-1.012344818,13.29819626,13.33738625
0.411474458,-0.263152771,-1.466051331,12.51188141,12.60022747
0.421537458,-0.380808105,-1.762434998,11.72601563,11.86383725
0.431600458,-0.37437149,-1.971699829,11.19536911,11.37383153
0.441662458,-0.094303894,-1.777104492,10.89793762,11.04228409
0.451725458,-0.017663269,-1.533860321,10.84809128,10.95600857
0.461787458,0.384400635,-1.459465027,11.53516251,11.63347652
0.471850458,1.318458252,-0.861009521,12.12852859,12.23032606
0.481912458,0.629890137,1.125808868,10.93910202,11.01490627
0.491975458,-0.704884186,1.875449982,9.839638367,10.04154657
0.502037458,-0.720002747,1.209933929,9.484876099,9.588806947
0.512100458,-0.102536774,0.457149353,9.045839081,9.057963568
0.522163458,0.473465424,0.085172882,8.821455688,8.834563056
0.532225458,0.613125,0.245339813,8.566835175,8.59225109
0.542288458,0.536484375,0.890198822,7.899672546,7.967753496
0.552350458,0.739911346,1.572180634,6.317762146,6.55235372
0.562413458,0.762514343,1.987117767,4.508175201,4.985349415
0.572475458,0.42706192,2.172582092,2.950664063,3.689026056
0.582538458,0.203426971,2.303709412,2.491718445,3.399576502
0.592600458,-0.109721832,1.666634216,2.811902618,3.27055115
0.602663458,-0.469723206,1.817670135,3.518134003,3.987710054
0.612726458,-0.826880493,2.394420776,4.637955322,5.284658151
0.622788458,-0.975371704,2.428998871,5.310357056,5.92041194
0.632851458,-0.915346527,2.168390808,5.202730865,5.710357819
0.642913458,-0.620310059,1.942660217,4.397106171,4.846984213
0.652976458,-0.853674774,1.663191376,2.716999969,3.298038054
0.663038458,-2.86549118,1.588646393,1.125210114,3.464236549
0.673101458,-6.399043121,2.123484192,0.65638504,6.774051912
0.683163458,-8.070916443,2.278412018,0.583037567,8.406591839
0.693226458,-6.182144165,1.707349548,0.580792236,6.439818987
0.703289458,-3.635040894,1.366059265,1.472487946,4.153054414
0.713351458,-1.73638916,1.370100861,2.971171417,3.704063076
0.723414458,-0.32407608,1.552571411,5.825286255,6.037339086
0.733476458,2.491868134,1.337618408,14.20306458,14.48190848
0.743539458,6.136638794,-0.410446472,10.22329056,11.93073643
0.753601458,6.778803406,-2.286495209,10.6367308,12.81874714
0.763664458,4.061653748,-2.0172052,10.85512665,11.76434964
0.773726458,2.316882019,-1.319057007,9.466165009,9.834436112
0.783789458,1.641037445,-0.831520844,8.544681244,8.740481015
0.793852458,0.199834442,0.718954926,8.950786743,8.98183797
0.803914458,-0.028590546,2.938239899,7.982450409,8.506091091
0.813978208,1.77381134,3.273392944,7.724686432,8.575096997
0.824040208,4.044289856,1.946402435,6.696624298,8.061609012
0.834103208,5.774841156,0.559386749,4.832101593,7.550556914
0.844165208,6.483916626,-0.453407135,3.816463623,7.537383328
0.854228208,5.95686264,-1.07177124,3.623514862,7.054272894
0.864290208,5.673501892,-1.779798889,4.089795227,7.216836759
0.874353208,6.387666779,-2.593357086,4.94945755,8.486749548
0.884416208,7.670199738,-3.082390137,5.862858124,10.13440666
0.894478208,9.07398056,-3.331921234,6.57118515,11.68842575
0.904541208,10.38570282,-3.631148987,6.6554599,12.85858517
0.914603208,9.097481689,-4.324207764,6.095324707,11.77352662
0.924666208,5.583538971,-4.636907501,5.058430939,8.846724941
0.934728208,9.152567139,-6.950646057,3.986060944,12.16427752
0.944791208,11.5856076,-7.830366669,3.664978638,14.45589894
0.954853208,12.87891815,-7.752229156,3.890709229,15.52743404
0.964916208,14.53088287,-7.638166351,4.360432434,16.9853323
0.974979208,15.6984549,-7.494914246,4.799619141,18.04581862
0.985041208,17.19085144,-7.408843231,4.386029205,19.22637728
0.995104208,18.01204376,-7.021149445,2.504741364,19.49369101
1.005166208,18.54089401,-6.353687439,-0.480500793,19.60522828
1.015229208,18.36426132,-6.451733551,-3.197650452,19.72551465
1.025291208,16.98712509,-7.299271088,-5.508694611,19.29216145
1.035354208,16.52219193,-7.391030273,-7.024592285,19.41533032
1.045417208,16.30394577,-6.676715698,-7.019802246,18.96509435
1.055479208,16.08001144,-6.424490204,-5.502707062,18.16922198
1.065542208,16.53252045,-6.340365143,-4.52359314,18.27532099
1.075604208,16.51575531,-6.167774048,-3.459156647,17.96600609
1.085667208,16.0740239,-6.018833771,-1.933678894,17.27251337
1.095729208,16.37100632,-5.344336395,-1.400188293,17.27808747
1.105792208,15.70923248,-4.200115814,-1.51529892,16.3314754
1.115854208,13.41420502,-2.623594208,0.399219818,13.67419172
1.125917208,11.71883057,-2.872376862,1.29405899,12.13491357
1.135980208,12.24319016,-4.876858521,-0.055534515,13.17886711
1.146042208,11.40837616,-5.755082245,0.209115143,12.77950497
1.156105208,11.0575058,-5.718857574,0.724942474,12.46993617
1.166167208,11.26227997,-5.613476715,0.957708435,12.62011396
1.176230208,12.10083618,-4.896168365,0.746797028,13.07518286
1.186292208,12.53358627,-4.276756439,0.13337265,13.24383701
1.196355208,13.55476273,-3.387156372,-0.001047821,13.97155761
1.206417208,14.54959396,-2.187251587,0.074544983,14.71326989
1.216480208,14.80166977,-1.325493622,-0.703387299,14.87753726
1.226543208,14.36502777,-1.252295837,-2.115850067,14.57391812
1.236605208,12.66980301,-1.804048462,-2.787653046,13.09769097
1.246668208,11.02637054,-2.472558289,-2.208956451,11.51407315
1.256730208,10.29738647,-2.763852539,-1.259181519,10.73594836
1.266793208,10.10219238,-2.702480164,0.784817963,10.48683123
1.276855208,10.27433441,-2.464325409,0.528251495,10.57893648
1.286918208,10.54946228,-2.129022675,-0.054486694,10.76228882
1.296980208,9.571545868,-1.464554443,-0.4445755,9.693144866
1.307043208,8.089178467,-1.00396225,-2.003733215,8.393908224
1.317106208,5.789810028,-0.837508392,-3.09017395,6.61607856
1.327168208,2.609523468,-1.533411255,-3.434907074,4.578160047
1.337231208,0.098944244,-3.140918427,-2.910547485,4.283275054
1.347293208,-0.574654999,-4.588408356,-1.382225647,4.826413508
1.357356208,0.518671417,-5.18117569,1.182391205,5.339630186
1.367418208,1.763782196,-5.064717865,3.02116745,6.155464844
1.377481208,4.102967834,-3.953279114,2.916235657,6.400561788
1.387543208,6.399492188,-2.547402649,1.545386353,7.05910614
1.397606208,7.324119415,-2.374212799,0.050744476,7.699492621
1.407669208,8.916957092,-2.998265076,-1.354383545,9.504529028
1.417731208,10.98326019,-3.682043152,-2.021097107,11.75900845
1.427794208,12.78970367,-3.874393158,-1.504970398,13.44813661
1.437856208,13.81192795,-4.026027832,0.167202301,14.38771039
1.447919208,13.77585297,-4.300706635,0.959654388,14.46344147
1.457981208,13.69172791,-4.556225281,0.243842926,14.4319805
1.468044208,12.54241791,-4.210294647,-0.58034317,13.24294628
1.478107208,10.87997498,-3.67875,-0.700543213,11.50642507
1.488169208,10.59317139,-3.096311188,-0.136665802,11.03725965
1.498232208,11.65940414,-2.744393005,0.261356506,11.98088917
1.508294208,11.7953215,-2.527793427,-0.413889313,12.07023833
1.518357208,11.54264694,-2.510878601,-1.912423096,11.96639344
1.528419208,11.54309601,-3.008743286,-2.794538727,12.25173654
1.538482208,11.54549103,-4.278702393,-2.659669189,12.59680505
1.548544208,10.69840256,-4.726870422,-1.895358582,11.84869214
1.558607208,7.883356476,-0.287701721,-2.853366394,8.38878903
1.568670208,11.36331985,-8.462801514,-3.760779419,14.6590419
1.578732208,12.48658401,-10.98790054,-0.549357605,16.6418308
1.588795208,12.48972748,-11.33712433,0.355061646,16.8715663
1.598857208,12.00698135,-13.03639069,-1.086141357,17.75654207
1.608920208,10.49183212,-14.03795792,-2.093845825,17.65012731
1.618982208,8.926387482,-14.13166306,-2.537223816,16.90626508
1.629045208,8.038284302,-13.80010254,-4.234843597,16.52243157
1.639107208,8.247249756,-12.9631929,-6.161187744,16.55360182
1.649170208,8.320597229,-11.22919876,-5.245092773,14.92776746
1.659232208,8.042924652,-9.695188751,-3.346291351,13.03391682
1.669295208,8.648415527,-10.26819717,-2.971620483,13.74996337
1.679358208,8.990603943,-9.944121094,-1.837279358,13.53115291
1.689420208,7.849975891,-8.753796387,-0.720302124,11.780064
1.699483208,6.595584412,-7.886499939,-0.39203476,10.288455
1.709545208,6.452781372,-7.020401001,-0.689765625,9.560344882
1.719608208,6.7934729,-6.010151825,-1.465452576,9.188076527
1.729670208,7.212002563,-5.440286865,-2.263443146,9.31304875
1.739733208,7.840096436,-4.828658752,-2.530338135,9.549118731
1.749796208,7.008425903,-4.021686859,-2.315534821,8.405575551
1.759858208,5.407205658,-3.652404785,-2.154619446,6.871704206
1.769921208,4.290078735,-3.866609344,-2.025288391,6.120231731
1.779983208,3.295846252,-5.012326813,-1.630110168,6.216372074
1.790046208,2.892285461,-4.812192993,-1.174158325,5.735953658
1.800108208,2.771786041,-3.452570343,-0.978066101,4.53427537
1.810171083,3.058140564,-2.881807251,-1.626817017,4.505948329
1.820233083,3.820505219,-2.633174286,-2.10731781,5.096141216
1.830296083,4.254901886,-1.391805725,-2.322270813,5.043238539
1.840358083,4.123624878,-0.971030731,-2.406395874,4.872158035
1.850421083,5.390739899,-1.743873596,-2.196083221,6.076508314
1.860484083,7.892337799,-2.799927521,-2.339634705,8.694968695
1.870546083,7.490573273,-3.000809784,-2.34607132,8.40342775
1.880609083,6.443500671,-2.393223267,-2.550546112,7.331541719
1.890671083,7.028035126,-1.872605896,-2.862497406,7.816253704
1.900734083,7.781867523,-2.13066925,-3.764371948,8.903241531
1.910796083,9.03072052,-2.246228943,-3.931873627,10.1024298
1.920859083,10.91170898,-2.479144592,-3.640579376,11.76713088
1.930922083,11.93093948,-3.301085358,-3.1545401,12.77480351
1.940984083,11.8590889,-3.803590393,-2.53437973,12.70938118
1.951047083,12.97142578,-4.025429077,-2.209854584,13.76028428
1.961109083,14.0208934,-3.678001556,-2.396965485,14.69212683
1.971172083,13.89395737,-2.923420715,-3.581751709,14.64299782
1.981234083,13.69936203,-1.929637299,-5.526806946,14.89770503
1.991297083,12.68357437,-0.667611694,-7.189399567,14.59473297
2.001359083,11.3627211,0.032033386,-7.901468811,13.8400024
2.011422083,10.96200439,-1.082548828,-6.984924774,13.04325981
2.021485083,10.38345749,-3.054248657,-4.536915436,11.73576695
2.031547083,9.563312988,-4.042792969,-2.68766098,10.72495463
2.041610083,10.48823959,-5.143154755,-1.623374176,11.79366586
2.051672083,11.35748199,-6.602470093,0.046253815,13.13724279
2.061735083,12.36368958,-6.48227005,0.935105438,13.99124966
2.071797083,12.30306564,-5.889353027,0.601299591,13.65325838
2.081860083,10.26894562,-5.348228302,-0.022453308,11.578225
2.091922083,7.703430634,-5.085524597,-0.646954651,9.253321256
2.101985083,5.202281799,-4.750970306,-1.600022736,7.224647225
2.112047083,4.251309357,-4.63466217,-1.525178375,6.471467666
2.122110083,5.157674561,-4.474944305,0.644110565,6.858688784
2.132173083,5.763764191,-5.493276672,1.405876465,8.085391449
2.142235083,5.580694885,-6.536906433,0.337098999,8.601682211
2.152298083,6.652765503,-5.771548004,-0.01526825,8.807399634
2.162360083,7.48742981,-4.358785858,-0.027243347,8.663796022
2.172423083,7.711214447,-3.608096924,-0.071251831,8.513886802
2.182485083,7.173532562,-3.589984589,0.704285431,8.052550946
2.192548083,7.004833374,-3.784729614,2.241588593,8.271432057
2.202610083,6.31147522,-3.378324738,3.410358124,7.929586371
2.212673083,6.409221954,-3.941753082,2.063758392,7.802220333
2.222736083,6.812333679,0.013022919,0.94079361,6.877001699
2.232798083,4.82431778,1.438658295,2.312840424,5.540127305
2.242861083,3.49852478,-2.498304749,1.496438141,4.551980818
2.252923083,3.982019348,-2.814147949,2.26179657,5.375093533
2.262986083,3.917054443,-2.650687866,3.106789398,5.658763296
2.273048083,3.64252533,-2.064656525,2.765948181,5.018093929
2.283111083,3.256627808,-1.281335449,1.338067474,3.746714531
2.293174083,3.107687531,-1.006806335,0.426463165,3.294427358
2.303236083,3.647914124,-1.681004333,0.437689819,4.040374413
2.313299083,4.641248474,-2.487377472,0.39203476,5.280333828
2.323361083,4.821324005,-2.786904602,0.36973114,5.581102359
2.333424083,4.448150024,-3.214415588,1.239871674,5.626347659
2.343486083,4.777016144,-3.16157547,1.351240082,5.885685385
2.353549083,5.070406036,-2.533481598,0.604143677,5.700222449
2.363611083,5.345234528,-3.347937927,-0.239951019,6.311719022
2.373674083,5.170996857,-4.167034607,-1.457369385,6.799066953
2.383736083,5.907615051,-4.050427094,-1.25663681,7.272208145
2.393799083,6.023923187,-4.21119278,0.511636047,7.367738231
2.403862083,5.100792847,-5.510041809,0.234113159,7.512220535
2.413924083,3.007396088,-7.463778992,0.770747223,8.083716926
2.423987083,0.05029541,-9.062005463,1.621278534,9.20603154
2.434049083,2.549797668,-8.107739868,0.991238708,8.556837506
2.444112083,9.749076691,-6.755152588,-1.247056732,11.92609464
2.454174083,10.49168243,-7.76824585,-4.430187378,13.78577543
2.464237083,6.095624084,-10.73582474,-3.672313385,12.88023491
2.474299083,2.89827301,-13.43126953,-2.666854248,13.99682461
2.484362083,8.592132568,-13.90054367,-4.930297394,17.06920293
2.494425083,13.88632324,-14.40110275,-5.928721161,20.86555698
2.504487083,17.69784714,-12.81110916,-4.881049805,22.38666921
2.514550083,15.97163681,-12.09694427,-3.480113068,20.3356935
2.524612083,15.55071213,-11.16004257,-2.258503418,19.27360982
2.534675083,15.80727859,-11.01708984,-0.823437653,19.28534093
2.544737083,14.14902695,-13.11542633,-0.382454681,19.29651893
2.554800083,11.25734024,-15.96205673,-0.858614502,19.55127063
2.564862083,8.875792694,-17.76954803,-1.873803406,19.95113211
2.574925083,8.511001282,-16.97964066,-3.519481201,19.31662723
2.584988083,9.699080658,-14.95330444,-5.04660553,18.52408451
2.595050083,11.37574402,-13.94814468,-5.737568665,18.89121453
2.605113083,12.35216354,-13.26167221,-6.316714325,19.19241449
2.615175083,11.55432266,-12.41158997,-6.262227631,18.07665435
2.625238083,10.85662354,-11.22485779,-4.353546753,16.21163398
2.635300083,10.14994308,-9.189240875,-3.016676788,14.02012237
2.645363083,8.975934448,-7.880063324,-2.51566864,12.20620276
2.655425083,7.33878891,-7.580835571,-3.544479218,11.13059853
2.665488083,5.872288513,-7.695347443,-4.59140213,10.71368835
2.675551083,3.780837708,-9.146729279,-4.329147491,10.80272689
2.685613083,1.532962189,-10.87952591,-2.842289429,11.34868566
2.695676083,0.368683319,-12.66052231,-0.273630981,12.66884472
2.705738083,-0.143252106,-14.54615112,1.654359741,14.64062635
2.715801083,-0.789308624,-16.26338013,2.946921844,16.54705078
2.725863083,-1.090632019,-16.86408096,4.210893402,17.41603652
2.735926083,-0.938248901,-15.45446228,3.875890045,15.9606779
2.745988083,1.006506958,-13.30238754,1.611997833,13.43745168
2.756051083,3.635639648,-11.59653488,-0.301622772,12.15682825
2.766114083,5.465883636,-10.34319122,-1.971999207,11.86365329
2.776176083,6.337670746,-9.668095093,-3.128344574,11.97600405
2.786239083,5.607938232,-9.118887177,-3.803889771,11.36101456
2.796301083,3.962410126,-8.88911499,-4.633165283,10.77883481
2.806364083,2.250719604,-8.304879913,-5.727090454,10.33616632
2.816425417,-0.074694672,-7.442822571,-7.892786865,10.84883734
2.826488417,-3.892804871,-7.068600769,-10.53254745,13.26851923
2.836550417,-5.868845673,-5.363945618,-8.292755127,11.48847465
2.846613417,-4.098926239,-3.808530121,-1.753303986,5.863460826
2.856675417,-0.688418427,-4.67567688,1.916015625,5.099704902
2.866738417,1.39360199,-5.932762756,4.120930481,7.356756653
2.876801417,0.137563934,-6.754104767,4.225712585,7.968280987
2.886863417,-1.217717743,-6.926246796,2.215093689,7.373084241
2.896926417,-1.670975189,-6.893315277,1.100212097,7.177772653
2.906988417,-2.094893646,-6.536008301,0.723445587,6.901547465
2.917051417,-2.541265411,-6.082900543,1.067879333,6.678328772
2.927113417,-3.380121002,-6.698420563,1.033450928,7.5737756
2.937176417,-3.798950043,-8.153095551,0.484542389,9.007761643
2.947238417,-2.938688965,-9.212592316,0.46807663,9.681262611
2.957301417,-0.65638504,-8.948691101,0.875978394,9.015389725
2.967364417,1.363364868,-8.142767029,0.221239929,8.259077779
2.977426417,1.618135071,-7.441026306,-2.728975067,8.089161793
2.987489417,0.591569824,-6.63794632,-3.865860901,7.70436024
2.997551417,-1.706601105,-6.46819931,-2.892584839,7.288150431
3.007614417,-2.276466064,-7.006929016,-3.167712708,8.019585761
3.017676417,0.192050629,-7.760611725,-3.374133453,8.464558721
3.027739417,3.892505493,-8.545429688,-2.70292923,9.771478597
3.037801417,6.277944946,-10.01342697,-3.457360382,12.31400233
3.047864417,6.624773712,-11.48890869,-6.025120697,14.56656202
3.057927417,8.082442474,-12.33195557,-10.25382706,17.95950928
3.067989417,13.86132523,-12.54601044,-13.58305389,23.10926368
3.078052417,11.23174347,-11.8962117,-9.361382904,18.84959957
3.088114417,8.825796661,-13.05599991,-8.869805145,18.08389515
3.098177417,10.36010605,-14.13061523,-8.605754242,19.52088856
3.108239417,9.827064514,-13.88198227,-3.638783112,17.3931415
3.118302417,8.431815948,-12.79643967,-1.139131165,15.36691277
3.128364417,6.097420349,-13.12126419,-1.433419189,14.53962859
3.138427417,2.994822235,-14.58387268,-0.795146484,14.90941181
3.148490417,1.24151825,-14.66964432,0.138911133,14.72274187
3.158552417,0.339194641,-12.59600647,0.620459747,12.61583934
3.168615417,-2.275418243,-10.71561676,-1.598825226,11.07060129
3.178677417,-2.443368988,-10.71157516,-4.015250244,11.69744113
3.188740417,-1.656754761,-10.12105316,-3.276536407,10.76644065
3.198802417,-1.873653717,-8.595874786,-2.252815247,9.08156474
3.208865417,-1.280587006,-7.109016724,-1.497485962,7.377024201
3.218927417,-0.004191284,-6.92340271,-0.329764252,6.931252925
3.228990417,-0.372575226,-7.077282715,1.277443542,7.201291893
3.239053417,-0.372425537,-10.74196198,2.146386566,10.9606306
3.249115417,-1.81243103,-16.35813309,3.215463409,16.76939561
3.259178417,-7.880961456,-14.74972778,6.120921478,17.80813586
3.269240417,-11.90998306,-12.14933533,6.03529953,18.05211583
3.279303417,-11.68799469,-11.44385239,4.735252991,17.0291984
3.289365417,-9.84397934,-11.11513596,5.080435181,15.69270525
3.299428417,-7.377857666,-11.01200043,5.380411377,14.30544525
3.309490417,-5.098397827,-10.16670822,4.755910034,12.32778556
3.319553417,-3.937262421,-8.811276855,3.463946686,10.25375842
3.329616417,-3.767515411,-7.073091431,2.123933258,8.290590283
3.339678417,-2.537822571,-5.689668274,1.190474396,6.34272006
3.349741417,-1.003812561,-5.980513458,-0.340242462,6.073709395
3.359803417,-1.426234131,-5.429958344,-1.539099426,5.821290102
3.369866417,-2.395917664,-4.95769043,-1.554217987,5.721425469
3.379928417,-3.22010376,-4.254153442,-1.077459412,5.443143257
3.389991417,-3.659589844,-3.655997314,-0.599203949,5.207490716
3.400053417,-3.805835724,-3.749103699,0.187410278,5.345585722
3.410116417,-3.176394653,-4.062252502,0.727337494,5.20772486
3.420179417,-2.244432678,-4.243824921,0.403411102,4.817703656
3.430241417,-1.423839111,-4.265080719,0.182171173,4.500157518
3.440304417,-1.181493073,-3.778891754,-0.194894714,3.964080312
3.450366417,-0.941092987,-3.690126343,0.003293152,3.808240969
3.460429417,-0.486188965,-4.098177795,0.300874329,4.13786978
3.470491417,0.382304993,-5.318290558,0.381556549,5.345648414
3.480554417,0.808019714,-7.325765991,0.283959503,7.37566107
3.490616417,0.359701996,-10.15338593,-0.597407684,10.17730452
3.500679417,0.222587128,-10.1762883,-0.309107208,10.18341474
3.510742417,0.737815704,-9.441616058,0.884061584,9.511574564
3.520804417,0.690813446,-10.24813889,1.834135895,10.43386929
3.530867417,-0.239951019,-13.11303131,2.682421875,13.38673051
3.540929417,-0.111667786,-14.73775269,3.739822998,15.20526553
3.550992417,0.601598969,-14.24692337,4.178860016,14.85932764
3.561054417,2.085463257,-12.56472153,3.693419495,13.26132466
3.571117417,3.233126678,-11.76628189,1.967807922,12.36004715
3.581179417,3.668870544,-11.8298996,-0.030087433,12.38579997
3.591242417,4.002676392,-11.9586319,-1.095272369,12.65819563
3.601304417,4.486620026,-12.19109848,-1.415306854,13.06735378
3.611367417,4.46506485,-11.9081868,-1.349443817,12.78916399
3.621430417,3.742367706,-11.53695877,-1.085093536,12.17719843
3.631492417,2.832859039,-12.53448441,1.968855743,13.00056855
3.641555417,1.741179199,-14.85780304,3.222199402,15.30256793
3.651617417,-0.011526031,-14.91887604,-2.27931015,15.0919929
3.661680417,-0.488883362,-16.68849609,-4.262835388,17.23127025
3.671742417,-0.130678253,-17.57375519,-5.2115625,18.33069371
3.681805417,1.210532684,-17.11855179,-5.640570374,18.06450218
3.691867417,2.730771332,-16.42669052,-6.053711243,17.71837163
3.701930417,3.764671326,-15.46553925,-6.301745453,17.11921874
3.711993417,4.981940002,-15.2392099,-5.593268738,16.9805153
3.722055417,5.232369232,-15.06257721,-4.519102478,16.5735092
3.732118417,4.131708069,-13.50416794,-3.886068878,14.64701658
3.742180417,3.082689514,-11.86612427,-3.10184967,12.64631769
3.752243417,2.646795959,-10.67340454,-1.702260132,11.12765846
3.762305417,2.481988678,-9.623338165,-0.399219818,9.946269738
3.772368417,2.601440277,-8.215366058,0.382903748,8.62591133
3.782430417,3.191213837,-6.566245422,1.25663681,7.408006532
3.792493417,3.607198792,-5.624254303,2.214794312,7.039135844
3.802556417,3.321443024,-5.385800171,2.73331604,6.892738484
3.812619167,2.386636963,-6.13244751,2.552342377,7.058144236
3.822682167,0.529898071,-8.396190033,2.102078705,8.671535845
3.832744167,-1.203647003,-11.02756805,1.167122955,11.15429062
3.842807167,-3.293151855,-14.30006287,0.390687561,14.67955326
3.852869167,-4.902455292,-17.1887558,-0.16495697,17.87497146
3.862932167,-6.125262451,-18.80060394,-0.82957489,19.79064787
3.872994167,-6.617289276,-19.17168228,-0.565224609,20.28944055
3.883057167,-6.920558624,-21.09742767,-0.798140259,22.21784449
3.893120167,-7.546407166,-24.58188171,-2.043251038,25.79519421
3.903182167,-7.813451843,-26.76494202,-2.528841248,27.99655673
3.913245167,-6.053112488,-26.07667328,-1.896855469,26.83712207
3.923307167,-2.71580246,-22.38265503,-1.899549866,22.62669041
3.933370167,-1.279838562,-17.33066071,-0.085771637,17.37806502
3.943432167,-1.457519073,-13.25598404,2.681523743,13.60279546
3.953495167,-2.508333893,-10.41983185,4.995411987,11.82449896
3.963557167,-3.237916718,-7.848628693,5.887107697,10.33165592
3.973620167,-3.141517181,-5.599855042,4.732857971,7.97668172
3.983682167,-2.558180237,-3.997886353,3.764821014,6.058156377
3.993745167,-1.693727875,-2.697241058,3.332220612,4.609502972
4.003808167,-0.987047424,-1.59014328,3.068618774,3.594334354
4.013870167,-0.742605743,-0.758772125,2.68766098,2.889761231
4.023933167,-0.962199097,-0.208666077,2.526595917,2.711651814
4.033995167,-1.756148071,0.279768219,3.264411621,3.71735249
4.044058167,-2.945574646,0.486638031,3.974534912,4.970930933
4.054120167,-4.16553772,0.347427521,4.002377014,5.787178254
4.064183167,-5.067711639,0.187709656,3.48684906,6.154271081
4.074245167,-5.312602386,0.058228912,2.801125031,6.006116562
4.084308167,-5.272785187,-0.049696655,2.134112091,5.688511914
4.094371167,-5.125192108,-0.28545639,1.781744843,5.433571034
4.104433167,-4.803361359,-0.767903137,1.906285858,5.224546042
4.114496167,-3.636088715,-1.554367676,2.156565399,4.504217394
4.124558167,-2.166744232,-2.502346344,1.668131104,3.706639876
4.134621167,-1.844913483,-3.442092133,-0.050744476,3.905672671
4.144683167,-1.772164764,-4.783752136,-2.756517792,5.798555233
4.154746167,-1.143771515,-6.977290649,-7.880662079,10.58752251
4.164808167,2.258653107,-10.34393967,-17.32063156,20.30031722
4.174871167,11.23159378,-14.55543182,-20.52711365,27.55669953
4.184934167,18.1469133,-19.99796402,-5.594017181,27.57756435
4.194996167,22.52261398,-26.47813843,4.13036087,35.00599715
4.205059167,20.78472794,-28.61075363,-4.183650055,35.61015398
4.215121167,12.38778946,-25.37927353,-15.11511795,32.0317287
4.225184167,7.478149109,-19.60054047,-12.66336639,24.50438224
4.235246167,5.771847382,-13.51943619,-6.624624023,16.1237409
4.245309167,5.131479034,-9.504485321,-2.146087189,11.01240249
4.255371167,3.903133392,-6.047274628,-1.137484589,7.286827286
4.265434167,2.238295441,-3.297193451,-1.369651794,4.213952678
4.275497167,0.978066101,-2.062411194,-0.468825073,2.33022535
4.285559167,0.146096191,-2.902015228,1.011446686,3.076696423
4.295622167,0.847537537,-5.518574066,4.490062866,7.16475011
4.305684167,3.18851944,-8.635841675,5.522915039,10.73531593
4.315747167,7.303612061,-12.9685817,1.166673889,14.92943362
4.325809167,11.28937363,-17.62195496,-5.027595062,21.52347475
4.335872167,8.501271515,-19.57808716,-5.703589325,22.09307686
4.345934167,1.136736145,-16.81558182,-0.70787796,16.86881893
4.355997167,-3.302582245,-13.15195038,2.712958374,13.82899097
4.366059167,-5.49477356,-10.69301376,3.26216629,12.45691811
4.376122167,-6.04697525,-9.291927338,3.915707245,11.75749066
4.386185167,-4.431384888,-7.87347702,3.681893463,9.756287813
4.396247167,-2.958597565,-6.867568817,2.637664948,7.929317586
4.406310167,-2.724783783,-7.052284698,1.965263214,7.811621191
4.416372167,-3.495830383,-8.384364624,1.90134613,9.280814475
4.426435167,-4.47913559,-9.533524933,2.219734039,10.76466314
4.436497167,-4.831802216,-9.227411499,2.642454987,10.74588312
4.446560167,-5.003794556,-8.721463623,2.90650589,10.46659755
4.456622167,-5.03492981,-8.696315918,2.792443085,10.42948547
4.466685167,-4.952900391,-8.951684875,3.225642242,10.72700575
4.476748167,-4.370910645,-8.978179779,3.54657486,10.59673371
4.486810167,-3.731739807,-9.159752197,3.332519989,10.43707966
4.496873167,-3.126847687,-9.58531723,2.978955231,10.51330857
4.506935167,-2.628533936,-10.41070084,2.742147675,11.08202402
4.516998167,-2.000739441,-11.22545654,2.694995728,11.71651974
4.527060167,-2.176623688,-12.48553619,2.909799042,13.00358547
4.537123167,-2.032323761,-13.5604509,2.526745605,13.94276198
4.547185167,-1.465602264,-14.6181514,2.071691895,14.83678697
4.557248167,-0.4552034,-15.12784149,1.714085541,15.23144404
4.567310167,0.879720612,-14.02403687,1.370250549,14.11825432
4.577373167,2.566263428,-11.6321608,1.273401947,11.97975064
4.587436167,4.009113007,-8.871900787,0.929267578,9.779936038
4.597498167,4.768483887,-6.317911835,0.366587677,7.923940627
4.607561167,5.249733124,-4.072730713,-0.364042969,6.654273861
4.617623167,5.573809204,-2.364932098,-1.091081085,6.152293134
4.627686167,5.512586517,-1.643881531,-3.087329865,6.528595736
4.637748167,5.119803314,-2.623743896,-4.935087433,7.579677169
4.647811167,3.985761566,-4.373305664,-3.482358398,6.86577874
4.657873167,2.778821411,-5.481151886,-1.810185699,6.406375473
4.667936167,2.420017548,-3.704346771,-0.149539032,4.427305259
4.677999167,1.921404419,-3.942950592,0.814606018,4.46119236
4.688061167,1.391656036,-6.94795166,1.282832336,7.201138632
4.698124167,0.57570282,-9.587861938,2.258353729,9.867050818
4.708186167,-0.172890472,-11.39670044,3.63189743,11.96266488
4.718249167,-0.155975647,-12.18795502,4.715045013,13.06913254
4.728311167,0.805325317,-11.30733627,5.262306976,12.4978509
4.738374167,1.130449219,-11.31541946,5.234165497,12.51851115
4.748436167,0.506846008,-12.17238739,5.164560242,13.23240682
4.758499167,-0.770597534,-12.6871669,5.651797028,13.91045773
4.768561167,-1.69657196,-14.51142334,5.942791901,15.77265163
4.778624167,-0.393232269,-17.76041702,-3.515140228,18.10920361
4.788687167,1.149609375,-18.09586945,-6.753805389,19.34931472
4.798749167,0.310753784,-18.11787369,4.219425659,18.60530752
4.808812167,0.097297668,-19.50309311,5.675896912,20.3124571
4.818874333,0.337398376,-21.33184021,2.520159302,21.48284076
4.828937333,0.81670166,-22.08986389,-0.607885895,22.11331304
4.838999333,-0.304766235,-22.78501831,-2.693798218,22.94572925
4.849062333,-0.781375122,-18.80808838,-4.73181015,19.40991404
4.859124333,0.544866943,-12.53343658,-5.688021698,13.77452371
4.869187333,1.178499298,-8.82250351,-2.353106689,9.206657366
4.879250333,2.595003662,-8.644224243,-3.608396301,9.719937275
4.889312333,3.246748352,-8.912017365,-6.113586731,11.2845634
4.899375333,3.298840027,-8.591533813,-4.57149353,10.2759599
4.909437333,3.858226776,-8.162975006,-1.244811401,9.114254233
4.919500333,5.037474518,-8.389903107,0.684825897,9.809975034
4.929562333,5.642067261,-8.807534637,1.664837952,10.59137738
4.939625333,5.02205658,-10.25697052,3.460952911,11.93334369
4.949687333,3.54882019,-13.08444077,5.995332642,14.82365435
4.959750333,1.732048187,-16.94596069,8.058941345,18.84441855
4.969812333,-0.599203949,-20.94788864,6.331533508,21.89203966
4.979875333,-3.601211243,-25.16027893,1.566342773,25.46491288
4.989938333,-5.528004456,-25.84226074,-1.370100861,26.4623969
5.000000333,-6.632407837,-22.6166185,-1.585652618,23.62233181
5.010063333,-7.503895569,-19.54710159,-0.622854767,20.9472093
5.020125333,-8.272996216,-17.12903,-0.012424164,19.02225774
5.030188333,-8.966953125,-14.99581604,-0.186212769,17.47327738
5.040250333,-9.618548126,-12.52550308,0.408051453,15.79782268
5.050313333,-8.778944092,-7.931256866,4.763843536,12.75417187
5.060375333,-8.868008881,-9.687404938,3.626957703,13.62505846
5.070438333,-7.50254837,-8.148604889,6.385421448,12.78521023
5.080500333,-7.448211365,-10.00459534,3.564238129,12.97195335
5.090563333,-6.212830353,-8.364306335,4.226910095,11.24400509
5.100626333,-4.621938629,-5.936504974,4.181255035,8.607398078
5.110688333,-2.703827362,-3.92094635,3.586990814,5.962466418
5.120751333,-1.408421173,-2.862647095,2.786156158,4.235689404
5.130813333,-0.507893829,-2.861000519,1.71887558,3.376064776
5.140876333,0.205821991,-3.200344849,0.381706238,3.229592775
5.150938333,0.808319092,-3.248694305,-0.789308624,3.439535223
5.161001333,0.596958618,-3.063828735,-1.318907318,3.388646135
5.171063333,-0.350121918,-2.61865448,-0.971779175,2.815011795
5.181126333,-1.810485077,-2.203118591,-0.107326813,2.853612936
5.191189333,-3.241958313,-2.050735474,1.1174263,3.995553932
5.201251333,-4.103865967,-1.941612396,2.370021515,5.121384242
5.211314333,-4.005370789,-1.633852386,3.41544754,5.511601462
5.221376333,-3.313958588,-0.727487183,3.948189697,5.205743079
5.231439333,-2.75786499,-0.246687012,3.56289093,4.512301582
5.241501333,-2.523003387,-1.960024109,2.887196045,4.306174823
5.251564333,-2.282902679,-3.850143585,2.436333618,5.096172266
5.261626333,-2.482737122,-5.318140869,2.494562531,6.377260238
5.271689333,-3.095862122,-6.426436157,2.175575867,7.457652064
5.281752333,-2.721939697,-8.018525391,1.050814819,8.532872725
5.291814333,-1.406624908,-9.864486694,-0.428109741,9.973463256
5.301877333,3.652853851,-12.44811401,-12.89373734,18.29063548
5.311939333,10.05324417,-14.78071335,-14.23479858,22.85096707
5.322002333,9.197922821,-17.11930023,-5.007536774,20.06857367
5.332064333,11.06588837,-19.33753738,-4.61131073,22.75210812
5.342127333,14.66275864,-19.11255524,-5.605393524,24.73270497
5.352189333,16.26248199,-16.73010956,-5.169949036,23.8975576
5.362252333,14.35889053,-15.39892776,-6.333329773,21.98671826
5.372314333,7.532336426,-13.50686234,-4.346511383,16.06435755
5.382377333,3.769461365,-13.48530716,-1.163380737,14.0504734
5.392439333,1.712289276,-13.62586487,0.897383881,13.76231906
5.402502333,0.512234802,-13.33292404,2.193688202,13.52189025
5.412565333,0.194745026,-13.03818695,2.768642578,13.33032731
5.422627333,-1.383872223,-12.13182175,0.774339752,12.23502363
5.432690333,-1.855092316,-12.45499969,-1.999242554,12.75011199
5.442752333,2.093546448,-14.21608749,-1.879940643,14.49186866
5.452815333,5.776637421,-15.62720306,1.252744904,16.7077343
5.462877333,4.074826355,-15.48754349,3.679648132,16.43192087
5.472940333,0.323028259,-13.3905542,2.570005646,13.63877627
5.483002333,-2.509082336,-10.53179901,-1.408121796,10.91774205
5.493065333,-3.820056152,-7.204518127,-4.812342682,9.468714408
5.503128333,-2.743045807,-4.982089691,-1.792223053,5.963017815
5.513190333,-2.097138977,-4.807253265,1.680555267,5.507444222
5.523253333,-2.373614044,-5.819448395,2.367776184,6.716128893
5.533315333,-2.809956665,-6.792275391,1.742975464,7.554391101
5.543378333,-3.464096375,-7.867938538,1.029109955,8.65814575
5.553440333,-4.10820694,-9.080866241,0.816402283,10.00030043
5.563503333,-4.739893341,-10.04426285,1.449136505,11.20061613
5.573565333,-5.175936584,-10.54137909,2.830613708,12.07987444
5.583628333,-5.170547791,-10.65753754,4.818779297,12.7882096
5.593690333,-5.002746735,-9.968969421,5.061125336,12.24838013
5.603753333,-4.484225006,-9.500892792,4.312232666,11.35652184
5.613816333,-2.945574646,-9.521998901,3.839365997,10.68108629
5.623878333,0.542172546,-9.529782715,2.946472778,9.989615183
5.633941333,2.830314331,-9.730515289,1.535057831,10.24939069
5.644003333,3.009342041,-8.956175537,1.596430206,9.582160987
5.654066333,3.873794403,-9.670639801,0.539029083,10.4315919
5.664128333,3.72560257,-10.61068497,0.424966278,11.25377032
5.674191333,1.813179474,-10.75498489,-0.473315735,10.91702101
5.684253333,-0.248932343,-10.15832565,0.292342072,10.16557973
5.694316333,-2.252665558,-8.982820129,1.298699341,9.351587008
5.704379333,-2.670895844,-8.389004974,0.57914566,8.82295295
5.714441333,-1.33627121,-8.223449249,-0.258662109,8.335325092
5.724504333,0.74530014,-7.780819702,-0.788410492,7.856094363
5.734566333,2.599494324,-7.230863342,-1.453627167,7.82021658
5.744629333,3.259771271,-6.073769531,-1.804497528,7.125517271
5.754691333,2.119592285,-5.294040985,-2.166594543,6.100301085
5.764754333,1.009351044,-5.585335236,-2.527793427,6.213251872
5.774816333,0.897832947,-6.486611023,-2.667453003,7.070893302
5.784879333,1.552122345,-7.71899826,-2.321971436,8.208749556
5.794941333,3.049009552,-8.71951767,-1.396745453,9.342234503
5.805004333,4.624034271,-9.22845932,0.293240204,10.32628414
5.815065708,4.600982208,-9.45897995,2.056273956,10.71772371
5.825128708,3.407514038,-9.667945404,1.844763794,10.41554001
5.835191708,2.596201172,-10.23436752,0.041014709,10.55860887
5.845253708,1.108444977,-10.79285614,-1.119222565,10.90720189
5.855316708,0.605490875,-10.76651093,-3.040327606,11.20392648
5.865378708,1.52577713,-10.74420731,-3.202290802,11.3146212
5.875441708,2.670596466,-11.13145203,-1.799707489,11.58793583
5.885503708,2.536325684,-12.15652039,-0.892893219,12.45034916
5.895566708,3.032244415,-13.22125626,0.540825348,13.5752943
5.905628708,3.125949554,-14.75796066,2.621947632,15.31155031
5.915691708,2.650837555,-15.57526108,4.477339325,16.42139656
5.925754708,2.275567932,-15.36210434,5.165009308,16.36611684
5.935816708,2.091750183,-14.72263412,3.76302475,15.33922194
5.945879708,1.959724731,-13.62092514,0.199235687,13.76262393
5.955941708,2.755020905,-12.46502884,-3.712429962,13.29470648
5.966004708,4.279899902,-12.61262192,-6.03529953,14.62260631
5.976066708,5.226681061,-14.15351761,-5.169200592,15.94869557
5.986129708,5.978268127,-15.10868134,-3.141966248,16.54943786
5.996191708,6.994055786,-14.63596436,-2.810256042,16.46286148
6.006254708,7.260651398,-14.0514299,-4.189338226,16.3618549
6.016316708,7.3774086,-13.5484758,-5.55210434,16.39552429
6.026379708,7.361840973,-12.41263779,-5.98036377,15.6216206
6.036441708,6.734046478,-11.30074997,-4.656367035,13.9547872
6.046504708,5.750890961,-10.85482727,-2.904410248,12.62282143
6.056567708,5.290747833,-10.09545639,-2.687810669,11.71044741
6.066629708,5.975274353,-9.86269043,-0.744252319,11.55553883
6.076692708,6.567143555,-10.82309326,4.406237183,13.40453835
6.086754708,6.101761322,-11.33398087,8.903036041,15.65102758
6.096817708,4.470004578,-11.15615067,9.654174042,15.41569703
6.106879708,1.502276001,-10.70932983,6.331683197,12.53143211
6.116942708,-0.972677307,-11.38816818,0.584534454,11.44456885
6.127004708,-0.95830719,-12.75452682,-3.442092133,13.24553908
6.137067708,-0.22468277,-13.18293594,-3.814068604,13.72542902
6.147129708,1.240171051,-14.1509729,-2.07812851,14.35641586
6.157192708,2.672841797,-15.73872116,-0.290994873,15.96671867
6.167255708,3.222199402,-16.1840451,0.830173645,16.52256255
6.177317708,3.456162872,-15.61178513,1.371448059,16.04848175
6.187380708,2.569855957,-14.26308975,0.981209564,14.52593065
6.197442708,0.889600067,-13.13473618,0.186661835,13.16615074
6.207505708,-0.259560242,-11.89291855,0.069305878,11.89595252
6.217567708,-0.809815979,-10.29888336,0.213306427,10.33287472
6.227630708,-0.856668549,-8.856183472,0.114062805,8.898251346
6.237692708,-0.390238495,-8.153694305,-0.168998566,8.16477663
6.247755708,0.929417267,-8.29589859,0.205372925,8.350325018
6.257817708,2.585423584,-7.990383911,0.831520844,8.439317334
6.267880708,3.320095825,-6.755152588,1.146765289,7.613815955
6.277943708,2.781665497,-6.003116455,1.138233032,6.713467401
6.288005708,2.055525513,-5.392386475,1.205443268,5.895431324
6.298068708,1.396595764,-4.590503998,1.618584137,5.063893886
6.308130708,0.812510376,-4.21119278,2.331401825,4.881572719
6.318193708,0.234711914,-3.965852966,3.01293457,4.986066
6.328255708,-0.73601944,-3.570225677,3.351231079,4.951664947
6.338318708,-1.573527832,-3.367846527,3.722459106,5.260711156
6.348380708,-1.982926483,-3.350183258,3.780388641,5.426514865
6.358443708,-1.944157104,-3.616928558,3.707190857,5.532195142
6.368505708,-1.946103058,-3.510649567,3.221450958,5.146816858
6.378568708,-1.891167297,-3.08433609,2.149230652,4.208186695
6.388631708,-1.737886047,-2.96967453,0.801283722,3.532884138
6.398693708,-1.440304871,-3.114273834,-0.453407135,3.46103419
6.408756708,-1.097218323,-3.632496185,-1.142574005,3.962876725
6.418818708,-0.577349396,-4.85006424,-1.764380951,5.193216305
6.428881708,0.40131546,-6.550228729,-2.97551239,7.205568991
6.438943708,1.985022125,-7.741601257,-5.550308075,9.730294065
6.449006708,3.461851044,-8.55680603,-11.04148911,14.39158865
6.459068708,6.064189453,-9.554780731,-18.66797974,21.83029308
6.469131708,11.60312119,-11.12082413,-25.46025513,30.10863234
6.479193708,15.94349533,-12.90556274,-21.99121902,30.07261723
6.489256708,16.11893051,-13.00765045,-11.40178986,23.64359751
6.499319708,15.4183873,-12.2810614,-5.36604126,20.42903656
6.509381708,12.87861877,-12.01955521,-4.777614899,18.25251032
6.519444708,7.703280945,-11.58231445,-6.843917999,15.50257266
6.529506708,3.750450897,-10.19290375,-7.655380554,13.28781473
6.539569708,2.466720428,-9.224118347,-6.648574219,11.63497349
6.549631708,2.088906097,-8.849896545,-6.887627106,11.40717339
6.559694708,1.876946869,-9.020691376,-7.627388763,11.96130686
6.569756708,1.986069946,-9.80416214,-7.828720093,12.70255594
6.579819708,3.190764771,-10.23137375,-4.637955322,11.67786873
6.589881708,3.682492218,-11.19956039,0.571361847,11.80327736
6.599944708,3.944297791,-12.33180588,-0.298778687,12.95068299
6.610007708,5.359904022,-11.50492538,-2.411036224,12.91917083
6.620069708,4.477039948,-10.01686981,1.348845062,11.05445388
6.630132708,1.616189117,-9.80880249,4.403393097,10.87265121
6.640194708,-0.555345154,-9.278904419,3.971840515,10.1085109
6.650257708,-1.294358368,-8.657396851,3.446283417,9.407590191
6.660319708,-1.244811401,-8.644972687,3.890409851,9.561401413
6.670382708,-0.422571259,-8.960366821,5.109325104,10.32336878
6.680444708,0.361198883,-9.62273941,6.421047363,11.57399791
6.690507708,0.618663483,-10.6819368,6.849606171,12.70447256
6.700569708,0.944835205,-11.90624084,6.2201651,13.46631867
6.710632708,1.13853241,-12.22043747,4.441863098,13.05241341
6.720695708,1.065783691,-12.05293579,2.691552887,12.39570946
6.730757708,0.962049408,-11.84127594,1.208886108,11.94163978
6.740820708,0.9595047,-11.68874313,-0.380059662,11.73421538
6.750882708,1.12565918,-11.3269455,-1.967957611,11.55160855
6.760945708,1.615590363,-10.77459412,-2.964734802,11.29122062
6.771007708,2.525248718,-10.34034714,-2.593806152,10.95570584
6.781070708,3.678300934,-9.616003418,-1.198407898,10.36501814
6.791132708,4.376898193,-9.221723328,0.329614563,10.21303406
6.801195708,4.876409454,-9.394015045,1.346000977,10.66951763
6.811257708,5.130431213,-9.359886017,1.467847595,10.77419915
6.821321542,4.981790314,-8.689579926,0.896485748,10.05637712
6.831383542,4.479584656,-7.708370361,0.245938568,8.918864171
6.841446542,3.017724609,-7.154971161,-0.994980927,7.828809691
6.851509542,2.153871002,-6.738387451,-2.549498291,7.519638773
6.861571542,2.021546173,-6.124963074,-3.453318787,7.316230739
6.871634542,2.453996887,-5.887257385,-3.126398621,7.103257603
6.881696542,3.206931152,-6.127507782,-1.808239746,7.148460674
6.891759542,3.859573975,-6.61100235,-0.33111145,7.662329811
6.901821542,4.292473755,-6.850653992,0.896934814,8.133958637
6.911884542,4.223167877,-6.867419128,1.663191376,8.2318162
6.921946542,3.687431946,-6.685247955,1.600022736,7.800626086
6.932009542,3.172652435,-6.869963837,1.436113586,7.702243104
6.942071542,3.318000183,-7.575895844,1.373843079,8.383958961
6.952134542,3.772006073,-8.242310028,0.573008423,9.082513037
6.962197542,4.130660248,-8.542286224,-1.123413849,9.554845195
6.972259542,4.29307251,-8.424181824,-2.955753479,9.906250027
6.982322542,4.088148651,-8.472231903,-4.290078735,10.33907386
6.992384542,3.888613586,-8.791517944,-5.035678253,10.85219604
7.002447542,3.778442688,-9.347162476,-5.055736542,11.27858801
7.012509542,3.923790436,-10.15832565,-3.363206177,11.39731842
7.022572542,3.922592926,-11.15330658,-0.354313202,11.82829323
7.032634542,3.514691162,-12.15217941,1.955533447,12.80049333
7.042697542,3.590433655,-12.88460632,2.925067291,13.69161468
7.052759542,4.355792084,-13.14401688,3.801794128,14.35937822
7.062822542,4.984784088,-13.20958054,4.487218781,14.81472992
7.072884542,5.233866119,-13.84426071,3.914809113,15.3095604
7.082947542,5.680537262,-14.41861633,2.074685669,15.63551474
7.093010542,6.188730469,-14.10037811,-0.982407074,15.4300412
7.103072542,6.687193909,-13.1994017,-4.45099411,15.45167034
7.113135542,7.341632996,-12.34288284,-6.589147797,15.80073418
7.123197542,8.331374817,-12.58507919,-5.930068359,16.21609495
7.133260542,9.103768616,-13.07635757,-4.095633087,16.45125955
7.143322542,8.740324402,-12.68926254,-4.110003204,15.9468737
7.153385542,7.610174561,-12.08437042,-5.262905731,15.2198864
7.163447542,6.279441833,-11.90968369,-5.169649658,14.42210917
7.173510542,5.225932617,-12.07658661,-1.428928528,13.23616835
7.183572542,5.29224472,-11.67407364,2.596051483,13.07789482
7.193635542,5.673052826,-10.81890198,3.219205627,12.6331094
7.203698542,5.143304443,-10.51024384,2.621199188,11.99122559
7.213760542,4.029320984,-11.38951538,3.19899765,12.49760274
7.223823542,3.01413208,-13.16796707,3.324137421,13.9115146
7.233885542,2.611918488,-14.59539871,2.006577301,14.96242408
7.243948542,2.469414825,-15.37662415,-0.161963196,15.57449234
7.254010542,1.987267456,-16.33612885,-2.156116333,16.59720384
7.264073542,0.912951508,-17.4249646,-2.595752106,17.64088435
7.274135542,-0.024099884,-18.41904739,-2.105671234,18.53903285
7.284198542,-0.948278046,-18.99385208,-1.460512848,19.07350901
7.294260542,-1.414708099,-18.13194443,-0.585282898,18.1964657
7.304323542,-1.522483978,-16.53760986,0.401465149,16.61239512
7.314385542,-1.370849304,-14.5663591,1.250499573,14.684066
7.324448542,-1.157542877,-12.53882538,1.312021637,12.66030996
7.334511542,-1.162183228,-10.86066513,1.288670197,10.99842661
7.344573542,-1.433119812,-9.743987274,1.701811066,9.994762693
7.354636542,-1.365610199,-8.868008881,1.814077606,9.154089266
7.364698542,-1.114731903,-7.680079193,1.819167023,7.970922926
7.374761542,-0.667012939,-6.677613831,1.82889679,6.955594597
7.384823542,-0.141755219,-6.444249115,1.79491745,6.691051476
7.394886542,0.520617371,-6.328839111,1.870210876,6.6198894
7.404948542,1.242566071,-5.711073761,2.042502594,6.191296374
7.415011542,1.550775146,-4.868625641,2.605332184,5.735518719
7.425073542,1.451082458,-4.00986145,3.008443909,5.218751182
7.435136542,0.889001312,-3.397185516,3.271446991,4.79932893
7.445199542,0.123493195,-3.191213837,3.350033569,4.628371337
7.455261542,-0.612376556,-3.043171692,3.1346315,4.41155456
7.465324542,-1.29645401,-2.663710785,2.985391846,4.205795123
7.475386542,-0.896785126,-2.515069885,3.208877106,4.174529
7.485449542,0.212557983,-2.878514099,3.401376801,4.460985144
7.495511542,0.583187256,-3.446732483,3.003803558,4.609002929
7.505574542,0.603245544,-3.871998138,2.351609802,4.570157922
7.515636542,-0.023052063,-4.157753906,1.658700714,4.476464788
7.525699542,-0.562530212,-4.700375519,0.625848541,4.775108025
7.535761542,-0.02454895,-5.242098999,-0.747545471,5.295189213
7.545824542,1.34555191,-6.118227081,-2.491269379,6.741634496
7.555886542,2.622696075,-6.597979431,-5.188061371,8.793625422
7.565949542,4.089346161,-6.969806213,-9.000034332,12.09551854
7.576012542,7.208260345,-7.746840363,-14.02418655,17.56844789
7.586074542,12.06655746,-8.737779694,-19.51821167,24.55424993
7.596137542,17.4607402,-9.77961319,-22.01486984,29.75185333
7.606199542,17.82029251,-10.48539551,-13.41166031,24.64505988
7.616262542,14.88848923,-11.26482468,-6.63091095,19.8124296
7.626324542,11.6679364,-12.14140182,-6.947352905,18.21592958
7.636387542,7.503895569,-11.60895905,-7.605234833,15.7770712
7.646449542,3.909570007,-10.60065582,-6.158343658,12.86793838
7.656512542,1.668430481,-9.849218445,-4.910239105,11.13109214
7.666574542,0.588276672,-9.345815277,-5.141957245,10.68316699
7.676637542,0.479602661,-9.560169525,-5.102140045,10.84705919
7.686699542,1.107247467,-9.808652802,-6.974446564,12.08629685
7.696762542,3.163371735,-9.137747955,-8.045020294,12.57885964
7.706825542,5.230572968,-9.462871857,-0.201630707,10.81413391
7.716887542,6.734196167,-11.00885696,6.087391205,14.26887036
7.726950542,7.71555542,-12.60917908,3.011737061,15.08614439
7.737012542,7.676187286,-12.09005859,-1.111289063,14.36413351
7.747075542,5.748196564,-10.08857071,-0.831820221,11.64100286
7.757137542,2.55892868,-8.190068665,-0.078586578,8.580880874
7.767200542,0.767304382,-7.381749573,0.648002472,7.449757712
7.777262542,0.393980713,-7.940387878,2.750081177,8.412367499
7.787325542,0.527802429,-8.56039856,4.167184296,9.535429925
7.797387542,0.818797302,-8.90318573,4.552183685,10.03292188
7.807450542,0.648451538,-9.880503387,5.176984406,11.17345086
7.817512417,0.176782379,-11.00736008,6.155649261,12.61289997
7.827575417,-0.402662659,-11.76523407,6.492299194,13.44369067
7.837638417,-0.862057343,-12.37656281,5.682632904,13.64605315
7.847700417,-0.920435944,-12.6260939,4.436174927,13.41436162
7.857763417,-0.534239044,-12.47490829,3.640729065,13.00629296
7.867825417,-0.357157288,-12.14903595,3.194656677,12.56711849
7.877888417,-0.008083191,-11.71224426,2.655028839,12.00940919
7.887950417,0.625399475,-11.27440475,1.951791229,11.45918043
7.898013417,1.15484848,-10.72399933,1.085542603,10.84049073
7.908075417,1.701811066,-10.10638367,-0.2866539,10.2526739
7.918138417,2.496508484,-9.40628952,-2.312391357,10.00289913
7.928200417,3.287164307,-8.906179504,-3.375181274,10.07558094
7.938263417,3.908522186,-8.617280273,-2.851869507,9.882672952
7.948325417,4.209845581,-8.329728241,-1.634750519,9.475208792
7.958388417,4.224964142,-7.96478714,-0.377814331,9.023907128
7.968451417,4.108955383,-7.497159576,0.386945343,8.558074711
7.978513417,3.932023315,-7.155569916,0.490380249,8.179453586
7.988576417,3.800746307,-6.946454773,0.159867554,7.919877779
7.998638417,3.607198792,-6.833739166,-0.12169693,7.7283041
8.008701417,3.359463959,-6.80290329,-0.517473907,7.6048189
8.018763417,3.134182434,-6.848408661,-0.936153259,7.589478483
8.028826417,2.771636353,-6.904392242,-1.023721161,7.510033643
8.038888417,2.311044159,-7.091203766,-0.929716644,7.516014169
8.048951417,2.02543808,-7.317832489,-0.565523987,7.613992982
8.059013417,1.697470093,-7.514972534,0.222587128,7.707513343
8.069076417,1.28477829,-7.848029938,0.902922363,8.003592815
8.079138417,0.962498474,-8.2970961,0.915795593,8.402790523
8.089201417,0.728684692,-8.855135651,0.606389008,8.905735029
8.099264417,0.77344162,-9.520651703,0.556392975,9.568207456
8.109326417,1.280137939,-10.08153534,0.836759949,10.19687575
8.119389417,2.09908493,-10.67564987,0.95007431,10.92146048
8.129451417,2.670895844,-11.26407623,0.498613129,11.58713567
8.139514417,2.75082962,-11.67826492,-0.141006775,11.99870068
8.149576417,2.764301605,-12.15053284,-0.500409393,12.47105533
8.159639417,2.861449585,-12.95046936,-0.508642273,13.27257576
8.169701417,3.114273834,-13.79755783,-0.687071228,14.16133364
8.179764417,3.31021637,-14.33404221,-0.612226868,14.72403206
8.189826417,2.993325348,-14.66919525,0.654738464,14.98579222
8.199889417,2.456391907,-14.9432753,2.378703461,15.32949993
8.209951417,2.255359955,-15.68917419,3.476819916,16.22729528
8.220014417,3.214714966,-16.54868683,3.559747467,17.22977742
8.230076417,5.537584534,-16.83728668,1.834285583,17.81919383
8.240139417,7.581733704,-15.64381851,-2.45489502,17.55671533
8.250202417,8.057594147,-14.30410446,-6.570436707,17.68340653
8.260264417,7.409142609,-13.06034088,-8.472231903,17.24084138
8.270327417,6.277346191,-11.66105072,-8.204887848,15.57900394
8.280389417,4.36671936,-9.918374634,-6.477030945,12.62514646
8.290452417,1.958227844,-8.028105469,-3.272494812,8.887876912
8.300514417,0.621208191,-6.268813934,0.898731079,6.363304591
8.310577417,0.371377716,-5.015320587,2.511926422,5.621488802
8.320639417,0.861308899,-4.367467804,2.314487,5.01731782
8.330702417,1.327289886,-4.413721619,1.641935577,4.892707779
8.340764417,1.215023346,-4.663402405,1.016087036,4.925041785
8.350827417,1.105600891,-5.160967712,0.872086487,5.349623903
8.360889417,0.999321899,-6.89181839,0.907113647,7.022724553
8.370952417,0.092208252,-9.649982758,0.432750092,9.660121232
8.381015417,-1.222208405,-12.79179932,-0.555494843,12.86205651
8.391077417,-2.873574371,-16.95943268,-0.891546021,17.22424572
8.401140417,-4.723577271,-21.35339539,-0.591420135,21.87760166
8.411202417,-7.07204361,-26.82721252,-0.449066162,27.74733849
8.421265417,-8.231382751,-30.72331055,0.558787994,31.81178582
8.431327417,-8.200696564,-32.4318576,2.785258026,33.56835525
8.441390417,-6.576424255,-30.10374893,5.177882538,31.24572808
8.451452417,-3.515140228,-23.84735916,6.088439026,24.86205622
8.461515417,-1.027164001,-17.75188477,6.042783966,18.78030129
8.471577417,0.24219635,-12.75781998,5.216801605,13.7853418
8.481640417,0.660426636,-8.684191132,3.224594421,9.287052715
8.491702417,1.025218048,-5.098248138,-0.575553131,5.232061499
8.501765417,0.62719574,-2.912194061,-1.035696259,3.153873093
8.511827417,-0.053438873,-1.786534882,0.422122192,1.836504762
8.521890417,-0.681532745,-0.888252869,1.353186035,1.756300796
8.531953417,-1.544637909,-0.481099548,1.350042572,2.107125528
8.542015417,-2.129471741,-0.852477264,1.368903351,2.67119145
8.552078417,-2.573747864,-1.718576202,1.833387451,3.597081008
8.562140417,-2.784659271,-2.278262329,2.77073822,4.541122855
8.572203417,-3.126847687,-2.614313507,3.758384399,5.544119846
8.582265417,-3.972289581,-2.891686707,4.343218231,6.557780198
8.592328417,-5.109325104,-2.945874023,4.584666138,7.470109797
8.602390417,-6.17690506,-2.751727753,4.393064575,8.063819077
8.612453417,-6.806495819,-2.334245911,3.544928284,8.021446618
8.622515417,-7.117998047,-1.842668152,2.477198639,7.758726391
8.632578417,-6.919361115,-1.211430817,1.549278259,7.193426581
8.642640417,-6.728058929,-0.598156128,0.846190338,6.807393466
8.652703417,-6.230792999,-0.40490799,0.048798523,6.244126294
8.662765417,-5.630241852,-0.746048584,-1.492695923,5.872337943
8.672828417,-4.383484497,-1.604962463,-4.342918854,6.375875235
8.682891417,-1.244811401,-3.491040344,-12.81335449,13.33862705
8.692953417,4.596341858,-6.704857178,-20.06203079,21.64639803
8.703016417,9.02488266,-10.44647644,-12.49332001,18.61881902
8.713078417,12.70033951,-15.11646515,0.268691254,19.7453371
8.723141417,17.35221588,-21.21583145,6.58286087,28.18767386
8.733203417,20.93396759,-27.15637802,1.127754822,34.30702111
8.743266417,19.62419128,-29.16550003,-7.7927948,36.00642896
8.753328417,11.69503006,-25.8759407,-8.134234772,29.53817548
8.763391417,6.060297546,-18.99160675,-6.138135681,20.85869226
8.773453417,5.068160706,-12.41697876,-2.802621918,13.70117893
8.783516417,4.760101318,-8.468190308,0.408201141,9.722933704
8.793578417,3.66348175,-6.311026154,2.196681976,7.620732337
8.803641417,2.278561707,-6.384523315,2.972368927,7.401956394
8.813703417,0.843046875,-8.008945313,3.180436249,8.658470291
8.823766167,0.357157288,-10.01163071,3.164569244,10.50594162
8.833829167,1.984573059,-12.40814713,2.007026367,12.72512476
8.843891167,7.653284912,-16.28972534,-2.899021454,18.22998209
8.853954167,8.43630661,-17.681082,-0.62016037,19.60042165
8.864016167,3.527714081,-16.67173096,1.495540009,17.10637366
8.874079167,-2.13890213,-13.52437592,-0.079784088,13.69269921
8.884141167,-5.629493408,-9.394763489,-3.323239288,11.44537882
8.894204167,-5.709277496,-6.808142395,-1.739682312,9.053902305
8.904266167,-4.481530609,-6.338419189,0.901425476,7.814873147
8.914329167,-3.313210144,-6.73973465,1.329535217,7.626863608
8.924391167,-3.463347931,-7.532486115,1.381776581,8.404905263
8.934454167,-4.34920578,-9.044192505,1.592089233,10.16109035
8.944516167,-5.233267365,-10.17015106,1.731449432,11.56792882
8.954579167,-6.316714325,-10.64331711,1.964514771,12.53157601
8.964641167,-8.387358398,-10.45381119,2.880160675,13.70858398
8.974704167,-8.988807678,-9.860894165,4.927004242,14.22361656
8.984767167,-7.686815186,-9.708361359,5.219945068,13.43827498
8.994829167,-7.264692993,-9.00961441,3.580853577,12.11492585
9.004892167,-6.675817566,-8.28182785,2.930007019,11.03359206
9.014954167,-6.175857239,-7.946375427,2.699935455,10.41996864
9.025017167,-5.92767334,-7.887996826,3.286565552,10.39996722
9.035079167,-5.214107208,-7.630981293,3.992796936,10.06783079
9.045142167,-4.075724487,-7.283553772,5.012925568,9.736072534
9.055204167,-3.129093018,-7.341034241,5.239105225,9.546215501
9.065267167,-2.28634552,-7.586673431,3.997137909,8.874801466
9.075329167,-1.769919434,-7.988737335,2.831811218,8.658619624
9.085392167,-1.48595993,-8.531957703,2.267185364,8.95223484
9.095454167,-1.076561279,-9.257049866,2.118843842,9.557272395
9.105517167,-0.608334961,-9.921069031,2.141596527,10.16779808
9.115579167,-0.302820282,-10.36399796,2.075434113,10.57409951
9.125642167,0,-10.57356216,2.04175415,10.7688893
9.135705167,0.796044617,-10.50126251,2.223027191,10.76345908
9.145767167,1.845661926,-10.34603531,2.545905762,10.81335058
9.155830167,2.933749237,-10.28705795,2.848276978,11.06991995
9.165892167,3.978426819,-10.66562073,3.501518555,11.90982694
9.175955167,5.589975586,-12.07059906,4.35624115,13.99728637
9.186017167,6.112688599,-12.13736023,1.360371094,13.65763833
9.196080167,5.261408844,-11.06618774,-0.432750092,12.26092194
9.206142167,4.398153992,-10.65783691,-0.860410767,11.56172794
9.216205167,3.669169922,-10.76755875,-1.301244049,11.44973211
9.226267167,2.810106354,-11.54339539,-2.731968842,12.1905836
9.236330167,1.383423157,-12.81155823,-6.394103394,14.38521609
9.246392167,-0.28904892,-13.3785791,-8.664581909,15.94192296
9.256455167,-1.191073151,-13.59143646,-7.428452454,15.53472582
9.266517167,-1.395398254,-13.54114105,-4.072281647,14.20890971
9.276580167,-1.121168518,-12.75781998,-0.859362946,12.83578958
9.286643167,-0.432001648,-11.81343384,0.604742432,11.83678833
9.296705167,0.356109467,-11.26632156,1.092727661,11.32479003
9.306768167,0.999621277,-11.21887024,1.725312195,11.3946915
9.316830167,2.071841583,-11.84891006,3.801494751,12.61509253
9.326893167,2.639012146,-13.76537476,6.921606445,15.63197246
9.336955167,2.587369537,-15.86131622,9.514963531,18.67646552
9.347018167,2.68182312,-17.52241196,10.09021729,20.39704834
9.357080167,3.820205841,-17.61941025,7.941136322,19.70023442
9.367143167,4.564607849,-15.00764145,4.47674057,16.31276043
9.377205167,4.325554962,-11.83738403,0.715362396,12.62322581
9.387268167,4.812791748,-9.782756653,-2.997965698,11.30721409
9.397330167,6.175557861,-8.786578217,-4.703818359,11.72464834
9.407393167,7.507937164,-7.894283752,-5.003195801,11.98836122
9.417455167,8.897647247,-6.833739166,-6.737489319,13.08670623
9.427518167,9.631571045,-6.44245285,-8.465046844,14.35023964
9.437580167,7.91913208,-7.651488647,-3.790866852,11.64596938
9.447643167,5.226381683,-9.187294922,-0.844244385,10.60349952
9.457706167,3.767515411,-10.71606583,-1.102756805,11.412463
9.467768167,2.516566772,-13.22529785,-1.35962265,13.53108219
9.477831167,0.918340302,-15.88541611,-0.111218719,15.9123274
9.487893167,-1.106648712,-18.19226898,1.02027832,18.25443206
9.497956167,-3.065924377,-20.76272369,2.93569519,21.19218945
9.508018167,-4.681365051,-23.09891556,5.052892456,24.10408266
9.518081167,-6.063590698,-24.91673538,6.036197662,26.3447626
9.528143167,-7.168143768,-25.6026091,5.714366913,27.19429843
9.538206167,-7.405699768,-24.85057297,4.008065186,26.23852039
9.548268167,-6.880292358,-23.0625412,2.308948517,24.17747863
9.558331167,-6.272705841,-20.32293823,1.457219696,21.31882141
9.568393167,-6.106251984,-17.39412872,1.184935913,18.47284765
9.578456167,-6.27046051,-14.92351639,0.661474457,16.20085074
9.588518167,-7.017407227,-12.49526596,-0.171243896,14.3319573
9.598581167,-6.874454498,-9.732461243,-1.225950623,11.97839227
9.608643167,-6.184539185,-8.214617615,-0.227826233,10.28495855
9.618706167,-6.291416931,-7.597151642,1.037193146,9.918387454
9.628768167,-6.009104004,-6.685397644,0.243842926,8.992404126
9.638831167,-5.363047485,-5.766608276,0.30416748,7.880898883
9.648894167,-4.841531982,-4.860093384,0.560584259,6.882964067
9.658956167,-4.072281647,-3.897295532,0.773740997,5.689557576
9.669019167,-3.528312836,-3.032992859,1.395398254,4.857486329
9.679081167,-3.218008118,-2.39980957,2.315235443,4.634110203
9.689144167,-3.142115936,-1.8884729,3.211272125,4.873550155
9.699206167,-3.338956604,-1.452579346,3.918401642,5.349064347
9.709269167,-3.737427979,-1.065634003,4.102518768,5.651071046
9.719331167,-4.389921112,-0.752036133,3.775448914,5.838748172
9.729394167,-5.27473114,-0.504750366,3.023861847,6.100926323
9.739456167,-6.167025604,-0.248932343,2.096240845,6.518312496
9.749519167,-6.823410645,0.017962646,1.224304047,6.932400441
9.759581167,-7.278164978,-0.040565643,0.548459473,7.298913536
9.769644167,-7.258106689,-0.370180206,0.067060547,7.267849972
9.779706167,-5.935906219,-1.213975525,-0.551303558,6.083802662
9.789769167,-3.88112915,-2.615660706,-1.881886597,5.044436695
9.799831167,-2.276615753,-3.961062927,-5.479654999,7.1343968
9.809894167,-0.045056305,-6.077811127,-12.3580014,13.77178336
9.819957083,3.353177032,-9.130113831,-15.3201915,18.14692928
9.830019083,7.00528244,-12.15397568,-6.823710022,15.59987581
9.840082083,10.97368011,-15.64606384,8.896449738,21.0800329
9.850144083,18.95942368,-22.34897507,13.32768494,32.19570807
9.860207083,23.95678162,-27.76860489,6.453829193,37.2380815
9.870269083,23.29860031,-28.43427063,-5.255421295,37.13424263
9.880332083,18.84281616,-24.6496907,-7.789501648,31.98961251
9.890394083,12.45335312,-16.74343185,-7.09419754,22.03987643
9.900457083,7.385342102,-10.75034454,-5.592370605,14.19111676
9.910519083,3.375330963,-8.389603729,-2.621947632,9.415567919
9.920582083,0.704584808,-6.895560608,-0.008083191,6.931468905
9.930644083,-0.702788544,-5.91480011,2.06286026,6.303504147
9.940707083,-1.09632019,-6.090684357,4.150419159,7.451465164
9.950769083,-1.270857239,-7.948620758,5.291795654,9.633210852
9.960832083,-0.679137726,-10.59676392,5.128784637,11.79224599
9.970894083,0.961151276,-13.34115692,5.131029968,14.32612119
9.980957083,3.560495911,-16.39944717,4.74468338,17.4393526
9.991019083,6.374344482,-19.69723938,2.490970001,20.85230055
10.00108208,5.883365479,-19.49171677,-1.472937012,20.41348954
10.01114508,0.041763153,-14.24587555,-5.58368866,15.30112066
10.02120708,-3.433709564,-9.476942596,-6.691385193,12.09865439
10.03127008,-4.493655396,-7.011868744,-3.936064911,9.211506341
10.04133208,-5.008734283,-6.547684021,-1.41815094,8.364851299
10.05139508,-4.369264069,-6.70695282,-0.213156738,8.007441565
10.06145708,-3.838018799,-7.150480499,0.340392151,8.12253818
10.07152008,-4.193379822,-8.15668808,0.900227966,9.215552352
10.08158208,-4.933440857,-9.155710602,1.368154907,10.48988671
10.09164508,-5.58009613,-9.758357391,1.431323547,11.33188858
10.10170708,-6.043382721,-9.948911133,1.305734711,11.71359256
10.11177008,-6.709796906,-9.811347198,1.52817215,11.9841236
10.12183208,-7.240593109,-9.710906067,2.110910339,12.29568329
10.13189508,-6.432124329,-9.740245056,2.104174347,11.86052894
10.14195708,-5.342689819,-9.723928986,1.666484528,11.21946078
10.15202008,-4.885540466,-9.789492645,1.706750793,11.07319602
10.16208208,-4.518952789,-9.398056641,2.020198975,10.62193988
10.17214508,-4.527485046,-8.346942444,3.293301544,10.05064197
10.18220708,-4.692891083,-7.064409485,5.564528503,10.1436229
10.19227008,-4.358486481,-6.750661926,7.686066742,11.11950821
10.20233308,-4.087400208,-6.709048462,6.506369934,10.20054025
10.21239508,-3.29734314,-6.909481659,4.378395081,8.81950974
10.22245808,-2.792742462,-7.458988953,3.406765594,8.662677327
10.23252008,-2.759810944,-8.448730774,2.473007355,9.22569095
10.24258308,-2.455044708,-9.057215424,2.222278748,9.643594692
10.25264508,-1.78324173,-9.491013336,2.197729797,9.904004315
10.26270808,-0.96654007,-9.861642609,2.014361115,10.11156988
10.27277008,-0.426163788,-9.786349182,2.002685394,9.998249581
10.28283308,-0.098644867,-9.514664154,2.251018982,9.777814236
10.29289508,0.201630707,-9.30330368,2.453547821,9.623513455
10.30295808,0.510737915,-9.227561188,2.292333069,9.52173984
10.31302008,0.634530487,-9.632768555,1.900897064,9.839017665
10.32308308,0.641416168,-10.56742493,1.311123505,10.66775183
10.33314508,1.907633057,-12.97352142,-1.627116394,13.21358505
10.34320808,4.493805084,-15.764767,-6.392756195,17.59515542
10.35327008,4.766837311,-15.44473251,-7.727081451,17.91564367
10.36333308,4.216581573,-13.58874207,-7.569159851,16.11600608
10.37339508,3.431763611,-11.56465118,-5.958808594,13.45457388
10.38345808,2.097138977,-10.7668103,-3.107537842,11.40083275
10.39352008,0.874631195,-11.17575989,-0.639470215,11.22815706
10.40358308,0.543968811,-11.76149185,1.003213806,11.81672673
10.41364508,0.648900604,-12.07089844,2.343526611,12.31339831
10.42370808,1.488654327,-12.78476395,4.420158234,13.60897056
10.43377108,2.470462646,-14.42355606,6.531517639,16.02507029
10.44383308,3.27623703,-15.98211502,6.870263214,17.70204074
10.45389608,4.179608459,-16.4030397,5.442532196,17.78060728
10.46395808,5.482199707,-15.52691162,3.749253387,16.88775885
10.47402108,6.316864014,-13.25014618,1.393452301,14.74485856
10.48408308,6.83793045,-10.98879868,-1.387913818,13.01680813
10.49414608,7.623796234,-9.655072174,-2.615361328,12.57707448
10.50420808,8.339607697,-8.59901825,-2.795436859,12.30067635
10.51427108,8.716523895,-7.667954407,-3.009192352,11.9929376
10.52433308,8.261769562,-7.409441986,-2.320025482,11.3375123
10.53439608,7.148833923,-7.894732819,-1.659898224,10.77904888
10.54445808,5.477259979,-9.296717377,-1.865271149,10.95027704
10.55452108,2.590363312,-11.44534927,-2.973865814,12.10577878
10.56458308,-0.366737366,-14.3328447,-3.473826141,14.75236935
10.57464608,-2.242037659,-17.74335251,-1.407822418,17.93976742
10.58470808,-4.367168427,-21.17960678,0.792003021,21.63966664
10.59477108,-6.5957341,-24.11949326,2.401755524,25.12015312
10.60483308,-8.395890656,-26.52544006,3.492237854,28.04078593
10.61489608,-9.879754944,-28.16318436,3.312910767,30.02915065
10.62495808,-10.79614929,-28.37244919,1.004860382,30.37371325
10.63502108,-10.85467758,-26.45643356,-2.70173172,28.72396659
10.64508308,-9.954599304,-22.50689667,-4.357887726,24.9929116
10.65514608,-8.810678101,-18.4070723,-3.053649902,20.63427093
10.66520808,-8.193062439,-15.59606781,-1.319206696,17.66646285
10.67527108,-7.823480988,-13.52003494,-0.123343506,15.62092869
10.68533408,-7.286248169,-11.47274231,0.794697418,13.6141387
10.69539608,-7.058122559,-9.535321198,2.17991684,12.06198499
10.70545908,-5.542524261,-7.894283752,3.805536346,10.36925253
10.71552108,-4.298610992,-6.542594604,4.616849213,9.088393548
10.72558408,-3.751498718,-5.178930359,4.502936096,7.821220863
10.73564608,-3.268303528,-3.990252228,3.466790771,6.214705065
10.74570908,-2.900817719,-3.065924377,2.070943451,4.701429836
10.75577108,-2.422262878,-1.912872162,-0.151784363,3.090222622
10.76583408,-2.063608704,-0.886306915,-1.191671906,2.542459982
10.77589608,-2.308200073,-0.458795929,-0.017363892,2.353419382
10.78595908,-2.791095886,-0.32991394,1.059047699,3.003438277
10.79602108,-3.418291626,-0.323177948,1.781146088,3.868028311
10.80608408,-4.298161926,-0.412841492,2.425705719,4.952643968
10.81614608,-5.247038727,-0.585282898,2.700983276,5.930369477
10.82620858,-6.007307739,-0.726439362,2.704575806,6.627985419
10.83627058,-6.466253357,-0.633782043,2.73331604,7.048767887
10.84633358,-6.42733429,-0.32766861,2.35535202,6.853150803
10.85639558,-6.137836304,-0.227227478,1.51170639,6.325339756
10.86645858,-5.746549988,-0.484991455,0.722547455,5.812067472
10.87652058,-4.690795441,-1.186133423,0.298778687,4.847653357
10.88658358,-3.223247223,-2.427801361,-0.410147095,4.056077261
10.89664558,-2.223027191,-3.664828949,-2.723137207,5.078217932
10.90670858,-0.179776154,-5.70538559,-13.27289886,14.44830746
10.91677058,4.773573303,-9.538764038,-23.86621994,26.14137479
10.92683358,8.415050812,-12.73821075,-6.338419189,16.53029495
10.93689658,13.54518265,-17.65338959,10.51189041,24.60922544
10.94695858,24.44611404,-25.48959412,13.99559601,37.98958552
10.95702158,27.28645752,-29.42955093,6.037245483,40.58444979
10.96708358,23.0571524,-28.52273666,-4.991071014,37.01472104
10.97714658,16.41381729,-22.70927582,-6.906038818,28.85858587
10.98720858,9.388476563,-14.7853537,-6.891369324,18.82129505
10.99727158,5.295986938,-9.638756104,-5.667065277,12.37209464
11.00733358,2.257904663,-6.847510529,-2.552791443,7.648743561
11.01739658,-0.089962921,-5.240302734,0.027542725,5.241147267
11.02745858,-1.592238922,-4.765939178,2.278861084,5.517482114
11.03752158,-2.538271637,-5.859115906,3.60031311,7.330369472
11.04758358,-2.949017487,-8.200995941,3.692671051,9.465139093
11.05764658,-1.71767807,-11.13369736,4.311334534,12.06222369
11.06770858,1.9880159,-15.1410141,6.555168457,16.61844604
11.07777158,6.388864288,-19.96308655,6.281387787,21.88145891
11.08783358,7.741152191,-23.21926529,-2.119292908,24.56727743
11.09789658,0.652343445,-17.93675034,-10.6023024,20.84613587
11.10795858,-3.670816498,-12.13631241,-5.470224609,13.80899453
11.11802158,-4.767735443,-9.053323517,-2.068548431,10.43900668
11.12808358,-5.53563858,-7.750881958,-0.624501343,9.545127948
11.13814658,-5.190606079,-7.640561371,0.408500519,9.245941932
11.14820858,-5.396727448,-8.22569458,0.904868317,9.879549845
11.15827158,-6.064039764,-9.255253601,1.408121796,11.15415189
11.16833358,-7.225923615,-9.967622223,1.732347565,12.43255778
11.17839658,-8.218509521,-10.36878799,1.534608765,13.31956033
11.18845858,-9.20510788,-10.3581601,1.285826111,13.91685454
11.19852158,-10.30531998,-10.34543655,2.343975677,14.78924945
11.20858358,-9.293274536,-10.37312897,2.49111969,14.14823075
11.21864658,-7.532635803,-9.905351715,1.781295776,12.57098283
11.22870958,-6.696773987,-9.315129089,1.987117767,11.64332636
11.23877158,-6.024072876,-8.915011139,2.355950775,11.01441699
11.24883458,-5.561983795,-8.81771347,2.990032196,10.84564554
11.25889658,-5.768105164,-8.615184631,4.421056366,11.27112163
11.26895958,-5.527106323,-8.040379944,5.704038391,11.3018878
11.27902158,-4.812342682,-7.870333557,5.074597321,10.52864333
11.28908458,-3.689976654,-7.816595306,3.427722015,9.298621839
11.29914658,-3.103346558,-7.953410797,2.08157135,8.787516284
11.30920958,-2.980003052,-8.439599762,1.374292145,9.055161027
11.31927158,-2.650687866,-9.051527252,1.160836029,9.502832843
11.32933458,-2.175875244,-9.731114044,1.086141357,10.03038966
11.33939658,-1.606609039,-10.27568161,0.875828705,10.43733209
11.34945958,-1.0484198,-10.36699173,0.811911621,10.45145454
11.35952158,-0.480500793,-10.08138565,1.231189728,10.16764701
11.36958458,0.344134369,-9.74219101,1.786834259,9.910675598
11.37964658,1.095272369,-9.521400146,2.223326569,9.838692156
11.38970958,1.561403046,-9.444609833,2.357447662,9.858813004
11.39977158,1.703457642,-9.734706573,2.258204041,10.13734509
11.40983458,1.596430206,-10.77414505,2.458637238,11.1658268
11.41989658,2.704575806,-12.75767029,1.420545959,13.11833954
11.42995958,4.923411713,-13.53335724,-2.714754639,14.65474782
11.44002158,5.390290833,-12.91933411,-4.571942596,14.72640785
11.45008458,5.008883972,-11.86956711,-4.72477478,13.72220969
11.46014658,4.732857971,-10.76531342,-4.909041595,12.74325731
11.47020958,4.217330017,-10.12763947,-5.070705414,12.08581843
11.48027158,2.968926086,-10.54497162,-3.457061005,11.48748098
11.49033458,1.960772552,-11.01424576,-1.026864624,11.23444211
11.50039658,1.35258728,-11.25195145,0.508043518,11.34433832
11.51045958,1.290466461,-11.67287613,1.963766327,11.90704493
11.52052158,1.62636795,-12.53672974,4.667294312,13.4758414
11.53058458,1.946402435,-14.0686441,7.579188995,16.09842648
11.54064658,2.372416534,-16.0315123,9.486522675,18.77849459
11.55070958,2.55084549,-17.35146744,8.982820129,19.70460079
11.56077258,2.791544952,-16.7679808,6.327491913,18.1382209
11.57083458,3.03164566,-14.13330963,3.441942444,14.85894627
11.58089758,3.099903717,-11.59249329,0.875529327,12.03170209
11.59095958,3.668122101,-9.953551483,-2.683918762,10.94219936
11.60102258,5.382207642,-9.137298889,-4.795876923,11.638678
11.61108458,7.128476257,-8.246052246,-5.217250671,12.08438066
11.62114758,8.336763611,-7.130721588,-6.245761871,12.62372208
11.63120958,8.499325562,-7.113956451,-5.808371429,12.51335647
11.64127258,7.206314392,-8.653355255,-2.934797058,11.63720577
11.65133458,5.113067322,-10.54003189,-0.851130066,11.74564396
11.66139758,2.856958923,-12.34931946,-0.463436279,12.68395359
11.67145958,0.278121643,-15.45850388,-1.006207581,15.49371316
11.68152258,-2.057920532,-19.20700882,0.104782104,19.31722558
11.69158458,-4.290976868,-22.19000565,1.908680878,22.68153204
11.70164758,-6.324498138,-24.43788116,2.891087952,25.40802436
11.71170958,-7.577841797,-25.93416962,3.550766144,27.25092256
11.72177258,-7.993826752,-26.12861526,3.486250305,27.54559389
11.73183458,-7.575746155,-24.96987488,2.411934357,26.20503785
11.74189758,-6.694528656,-22.68607407,0.889450378,23.66993436
11.75195958,-6.268215179,-19.48902237,-0.745749207,20.48581598
11.76202258,-6.474935303,-16.51231247,-2.059716797,17.8556345
11.77208458,-6.613696747,-14.37745193,-2.769391022,16.0661643
11.78214758,-6.427633667,-12.51517456,-2.730621643,14.33179554
11.79220958,-6.254892883,-11.03684875,-2.18216217,12.87235593
11.80227258,-6.36177063,-9.64848587,-1.01099762,11.6011862
11.81233458,-5.679788818,-8.414302368,0.399369507,10.15972349
11.82239804,-5.135969696,-7.14569046,1.617236938,8.947319833
11.83246004,-4.999004517,-6.153553619,2.2746698,8.248053771
11.84252304,-4.525688782,-5.403014374,2.257455597,7.400711388
11.85258504,-4.002377014,-4.573140106,1.779349823,6.332354853
11.86264804,-3.724554749,-3.539689178,1.143921204,5.264053882
11.87271004,-3.657045135,-2.505789185,0.779878235,4.501240787
11.88277304,-3.768263855,-1.689237213,0.799038391,4.206161813
11.89283504,-3.957021332,-1.093176727,1.110241241,4.252727218
11.90289804,-4.231101379,-0.857866058,1.808838501,4.680817213
11.91296004,-4.743186493,-0.906365204,2.640808411,5.503924514
11.92302304,-5.446274414,-1.020577698,3.234024811,6.415793038
11.93308604,-6.036347351,-1.110989685,3.580105133,7.105556993
11.94314804,-6.214177551,-1.11862381,3.484603729,7.211780988
11.95321104,-6.021677856,-1.137035522,2.809208221,6.741298452
11.96327304,-5.823939056,-1.284329224,1.863474884,6.248224254
11.97333604,-5.607638855,-1.562001801,0.940344543,5.896584691
11.98339804,-4.840783539,-2.090552673,0.249680786,5.278819588
11.99346104,-3.514242096,-3.066373444,-0.670605469,4.71192692
12.00352304,-2.248025208,-4.231849823,-2.816542969,5.558334692
12.01358604,-0.234562225,-6.10670105,-8.89615036,10.79297495
12.02364804,3.598816223,-9.110803986,-14.32685715,17.3556061
12.03371104,6.38287674,-12.31593887,-5.533243561,14.93453214
12.04377304,10.53149963,-16.31577118,6.26582016,20.40532715
12.05383604,20.54118439,-22.98889435,11.19042938,32.79718325
12.06389804,27.59406784,-27.95182388,6.469696198,39.80695928
12.07396104,25.17599625,-27.99149139,-0.735869751,37.65495826
12.08402304,21.30699188,-24.61301697,-2.925067291,32.68554001
12.09408604,15.58903244,-17.26853989,-3.537443848,23.5315514
12.10414804,8.872948608,-10.56413177,-5.524711304,14.86110804
12.11421104,3.6296521,-7.230713654,-4.520150299,9.267650891
12.12427304,0.105380859,-5.245392151,-2.521356812,5.820866268
12.13433604,-2.34607132,-4.163891144,-1.002615051,4.883367387
12.14439804,-3.715872803,-4.277504883,0.681383057,5.70692926
12.15446104,-4.44276123,-5.90312439,2.350112915,7.752937226
12.16452304,-4.173171844,-9.113348694,2.989433441,10.45969407
12.17458604,-2.441872101,-13.06483154,4.052373047,13.89511748
12.18464804,0.165256348,-17.29817825,5.790259094,18.24229648
12.19471104,3.039728851,-20.54777069,5.604794769,21.51428726
12.20477304,4.021237793,-21.91472809,1.570833435,22.33591678
12.21483604,2.007325745,-17.48019974,-8.356223145,19.47853189
12.22489804,-2.662064209,-10.93326416,-8.855285339,14.31918048
12.23496104,-2.846031647,-7.922574921,-2.50743576,8.783753389
12.24502304,-3.335813141,-7.176376648,-0.243543549,7.917533995
12.25508604,-3.591631165,-7.508984985,0.327069855,8.330164742
12.26514804,-3.906426544,-8.267757111,0.759819946,9.175690837
12.27521104,-4.376598816,-9.53741684,1.191671906,10.5611088
12.28527304,-4.973707123,-10.55739578,1.656754761,11.78733238
12.29533604,-5.699847107,-11.08205475,2.100132751,12.63767194
12.30539804,-6.328689423,-11.28757736,2.50743576,13.18138637
12.31546104,-6.860982513,-11.13833771,2.46657074,13.31238593
12.32552304,-6.659501495,-11.04193817,2.109114075,13.06605223
12.33558604,-5.257666626,-11.07262436,1.752106476,12.38208164
12.34564804,-4.571643219,-10.72130493,1.76333313,11.7879449
12.35571104,-4.268373871,-10.26176056,1.739233246,11.24934121
12.36577304,-3.91391098,-9.687404938,1.788480835,10.60014987
12.37583604,-4.191882935,-9.110055542,2.328408051,10.29497346
12.38589904,-4.726421356,-8.559051361,3.732039185,10.46539705
12.39596104,-4.714595947,-7.934999084,5.848338318,10.92678757
12.40602404,-4.615352325,-7.558681641,7.473808136,11.58848365
12.41608604,-3.829187164,-6.972350922,5.680237885,9.774530891
12.42614904,-2.511926422,-6.620881805,3.629203033,7.957195793
12.43621104,-1.593885498,-6.890471191,2.409838715,7.471705752
12.44627404,-1.127305756,-7.571854248,1.789378967,7.861658356
12.45633604,-0.828976135,-8.234226837,1.439107361,8.400043038
12.46639904,-0.531095581,-8.704099731,1.436263275,8.837774994
12.47646104,-0.272433472,-8.835526428,1.731599121,9.007729058
12.48652404,-0.08547226,-8.950936432,1.805245972,9.13156512
12.49658604,-0.020207977,-8.971743164,1.780697021,9.14677351
12.50664904,0.070802765,-8.760682068,1.7995578,8.943879002
12.51671104,0.167202301,-8.581504669,1.767075348,8.763146369
12.52677404,0.247884521,-8.577014008,1.691632233,8.745755292
12.53683604,0.293838959,-8.938362579,1.484013977,9.065482029
12.54689904,0.370180206,-9.855056305,1.586101685,9.988737994
12.55696104,0.831670532,-11.95713501,1.441352692,12.07237554
12.56702404,2.433040466,-14.05487274,-3.058140564,14.5880553
12.57708604,3.106490021,-14.21084839,-6.811884613,16.06238663
12.58714904,2.685265961,-13.24580521,-7.206763458,15.31663959
12.59721104,1.923200684,-12.47296234,-7.08491684,14.47306246
12.60727404,1.124761047,-12.12388824,-5.386847992,13.31434883
12.61733604,0.489033051,-11.5365097,-2.20087326,11.75474596
12.62739904,0.2667453,-11.158396,-0.249531097,11.1643728
12.63746104,0.346828766,-11.39550293,0.951122131,11.44038507
12.64752404,0.788260803,-12.40111176,2.95096344,12.77173101
12.65758604,1.661993866,-14.41547287,6.938670959,16.08456516
12.66764904,2.398162994,-17.56103165,10.81141754,20.76120824
12.67771104,3.377725983,-18.29570389,9.447453918,20.8661496
12.68777404,3.948489075,-15.41015442,4.708309021,16.59010546
12.69783604,3.962709503,-12.58837234,1.615141296,13.29582139
12.70789904,4.513863373,-10.4563559,-0.909508667,11.42530294
12.71796104,5.964047699,-8.934320984,-3.257975006,11.22525534
12.72802404,7.701185303,-8.052355042,-3.72904541,11.74965772
12.73808604,8.808133392,-7.015910339,-4.117337952,11.98994093
12.74814904,8.916358337,-6.541247406,-4.530478821,11.95050635
12.75821104,8.18587738,-7.661817169,-3.72201004,11.81377965
12.76827404,6.956483917,-9.323062592,-2.542313232,11.90695264
12.77833604,4.559967499,-10.96799194,-2.266137543,12.09237488
12.78839904,1.612895966,-13.43590988,-1.968406677,13.67478455
12.79846104,-0.448467407,-16.82755692,-0.234412537,16.83516391
12.80852404,-2.458936615,-20.25692551,1.617985382,20.46966724
12.81858604,-4.518354034,-23.1315477,3.043471069,23.76440065
12.82864917,-6.36296814,-25.42373108,4.262236633,26.5522151
12.83871117,-7.738008728,-26.69937836,4.783752136,28.206699
12.84877417,-8.090825043,-26.33713165,4.043990479,27.84707907
12.85883617,-7.396419067,-24.66870117,2.441423035,25.86913951
12.86889917,-6.502777405,-22.42322067,1.543141022,23.39803888
12.87896117,-6.119873657,-19.74992981,1.13613739,20.7075684
12.88902417,-6.309379578,-17.32706818,0.933608551,18.46367209
12.89908617,-6.791976013,-15.23217453,0.898731079,16.70202972
12.90914917,-6.874005432,-13.07171722,0.469423828,14.77640351
12.91921117,-6.91636734,-10.93506042,-0.203277283,12.94036342
12.92927417,-6.771917725,-8.917705536,-0.868344269,11.23113367
12.93933617,-5.998027039,-7.386838989,-1.616638184,9.651696101
12.94939917,-5.428311768,-6.152206421,-1.955832825,8.43454175
12.95946117,-5.108726349,-5.301525421,-1.678609314,7.551356562
12.96952417,-4.838687897,-4.72597229,-0.841100922,6.815802624
12.97958617,-4.631518707,-4.199816437,0.533191223,6.274847928
12.98964917,-4.384532318,-3.489693146,1.226100311,5.736323202
12.99971117,-4.24741745,-2.656226349,1.690584412,5.287170232
13.00977417,-4.217330017,-1.904040527,2.161505127,5.107185841
13.01983617,-4.359983368,-1.319356384,2.538720703,5.214907386
13.02989917,-4.629273376,-0.93839859,2.855761414,5.51961386
13.03996117,-4.845423889,-0.755179596,3.070864105,5.786072523
13.05002417,-4.969066772,-0.615220642,3.199147339,5.94177286
13.06008617,-5.126838684,-0.572110291,3.075803833,6.006026498
13.07014917,-5.370980988,-0.67045578,2.773881683,6.082052887
13.08021117,-6.01194809,-0.972527618,2.120640106,6.448755249
13.09027417,-6.660699005,-1.490899658,1.197509766,6.929770751
13.10033617,-6.596632233,-2.037413177,0.305215302,6.910844062
13.11039917,-5.325774994,-2.884651337,-0.688418427,6.095819268
13.12046117,-3.580554199,-4.033811646,-2.456242218,5.926645813
13.13052417,-1.91077652,-5.70299057,-6.96905777,9.205592569
13.14058617,1.512305145,-8.686885529,-15.6625296,17.97397787
13.15064917,6.180647278,-11.95533875,-12.77009445,18.55278517
13.16071117,10.37702087,-14.82232681,3.352727966,18.40175859
13.17077417,19.10716644,-20.1415155,14.23075699,31.19741817
13.18083617,27.58299088,-26.2143869,10.6939119,39.52689234
13.19089917,26.86149124,-27.13108063,-0.165256348,38.17934726
13.20096217,22.06726089,-23.18274124,-3.816912689,32.23309351
13.21102417,16.44360535,-16.29586258,-2.663411407,23.30324128
13.22108617,9.725425873,-9.988428955,-3.90927063,14.4787782
13.23114917,4.199067993,-6.917265472,-3.963158569,9.010402847
13.24121117,0.476159821,-5.192402344,-2.032922516,5.596476055
13.25127417,-1.957629089,-4.789290619,0.043559418,5.174119607
13.26133617,-3.419938202,-6.323300629,2.108365631,7.491682974
13.27139917,-3.748205566,-9.231752472,3.066223755,10.42477946
13.28146117,-2.848875732,-12.7097699,3.388353882,13.45865097
13.29152417,0.047601013,-17.05852661,4.202660522,17.56866391
13.30158617,4.910688171,-21.1143425,4.058659973,22.05454688
13.31164917,8.169710999,-23.69303009,-1.023721161,25.08289971
13.32171117,3.76886261,-20.85148911,-10.71980804,23.74664624
13.33177417,-4.032464447,-13.45836319,-7.402256927,15.88023038
13.34183717,-5.356161804,-9.352700958,-1.210532684,10.84559237
13.35189917,-6.186485138,-7.512876892,0.476758575,9.743880967
13.36196217,-5.648952942,-6.782395935,0.866548004,8.869186513
13.37202417,-5.253175964,-6.684050446,1.216520233,8.587916485
13.38208717,-5.324577484,-7.548951874,1.764231262,9.404802588
13.39214917,-5.848338318,-8.823401642,2.023492126,10.77729085
13.40221217,-6.804250488,-9.908195801,2.181413727,12.21592136
13.41227417,-7.7237883,-10.7031926,2.992576904,13.53405904
13.42233717,-8.712033234,-11.36107452,2.378404083,14.51310936
13.43239917,-8.145611115,-11.89336761,2.102827148,14.56794617
13.44246217,-7.477250977,-11.98767151,1.979483643,14.26646087
13.45252417,-6.815626831,-11.26078308,1.884281616,13.29693656
13.46258717,-6.017935638,-10.20293289,2.249971161,12.05726997
13.47264917,-5.981261902,-9.127569122,3.134182434,11.35390292
13.48271217,-6.232738953,-8.229287109,4.205654297,11.14700539
13.49277417,-5.859115906,-7.060218201,5.641917572,10.77066173
13.50283717,-5.315147095,-6.231691132,6.554120636,10.49005531
13.51289917,-3.757037201,-5.934409332,4.491559753,8.337064931
13.52296217,-2.565814362,-6.262527008,2.711910553,7.290892038
13.53302417,-2.375110931,-7.268435211,1.769919434,7.84881629
13.54308717,-2.091600494,-8.380772095,1.154549103,8.714649572
13.55314917,-1.84521286,-9.225315857,0.717458038,9.435359516
13.56321217,-1.569336548,-9.699679413,0.712817688,9.851634736
13.57327417,-1.107995911,-9.640851746,1.134041748,9.770349431
13.58333717,-0.649798737,-9.437424774,1.320553894,9.551496603
13.59339917,-0.205372925,-9.176816711,1.48012207,9.29768274
13.60346217,0.210462341,-8.924441528,1.702409821,9.087802275
13.61352417,0.643960876,-8.902137909,1.795965271,9.104297678
13.62358717,1.059646454,-9.24133255,1.658251648,9.448538323
13.63364917,1.389111328,-9.747280426,1.310824127,9.932641435
13.64371217,1.543590088,-10.42851379,0.73482193,10.56771184
13.65377417,2.119143219,-11.79053146,-1.585353241,12.08390438
13.66383717,3.791016541,-13.89141266,-7.289391632,16.13934269
13.67389917,4.43228302,-14.38119415,-9.180109863,17.62777057
13.68396217,3.013533325,-13.25014618,-6.348598022,14.99841504
13.69402417,0.936602325,-12.18047058,-3.119063873,12.60831658
13.70408717,-0.345032501,-11.86537582,-1.306632843,11.94208861
13.71414917,-0.609233093,-11.87390808,-0.054636383,11.88965278
13.72421217,-0.20477417,-11.92031158,0.894390106,11.95557169
13.73427417,0.305065613,-12.01521423,1.998943176,12.18417875
13.74433717,0.901275787,-12.73372009,4.101321259,13.40823484
13.75439917,1.415157166,-14.438974,6.979236603,16.09957712
13.76446217,2.086511078,-16.46920212,9.365125122,19.06026536
13.77452417,3.569776611,-16.9034491,9.274862823,19.60849247
13.78458717,4.915627899,-15.32797531,6.708449707,17.43885094
13.79464917,5.045857086,-13.14581314,3.39793396,14.48513141
13.80471217,5.955365753,-11.16288666,-0.039667511,12.65219322
13.81477417,7.841144257,-9.747130737,-2.726580048,12.80329409
13.82483642,9.41212738,-8.602311401,-3.401227112,13.19682724
13.83489842,10.2373613,-7.359146576,-4.899012451,13.52630503
13.84496142,10.02210892,-6.513704681,-5.779481506,13.27680015
13.85502342,8.728049927,-7.698191528,-4.394112396,12.43982444
13.86508642,6.279292145,-9.713600464,-3.168161774,11.99253071
13.87514842,3.138373718,-11.78978302,-3.341950378,12.64978283
13.88521042,0.455951843,-14.67428467,-2.66550705,14.92137562
13.89527342,-1.427880707,-18.38102646,-0.177530823,18.43725832
13.90533642,-3.668421478,-21.88868225,1.656006317,22.25565285
13.91539842,-5.729485474,-24.70582397,2.681074677,25.50280188
13.92546042,-7.538323975,-26.73485458,3.863016815,28.04463722
13.93552342,-8.525072021,-27.29963013,4.176914063,28.90317057
13.94558542,-8.36265976,-26.46376831,3.169059906,27.93399456
13.95564842,-7.572153625,-24.62274673,1.721270599,25.81820946
13.96571042,-6.905290375,-22.02909027,0.935554504,23.10495868
13.97577342,-6.680457916,-19.11315399,0.509989471,20.25342595
13.98583542,-6.995402985,-16.62113617,0.263003082,18.03516014
13.99589842,-7.337890778,-14.45558945,-0.056732025,16.21147513
14.00596042,-7.281907196,-12.37671249,-0.727487183,14.37840124
14.01602342,-7.542664948,-10.27463379,-0.926872559,12.77963171
14.02608542,-7.064110107,-8.457113342,-0.834065552,11.05079558
14.03614842,-6.133495331,-6.964716797,-0.579744415,9.298556265
14.04621042,-5.705984344,-5.748945007,-0.085023193,8.10036141
14.05627342,-5.368735657,-4.708159332,0.516575775,7.159395043
14.06633542,-4.868026886,-3.622766418,1.160386963,6.178075768
14.07639842,-4.45922699,-2.685715027,1.549128571,5.43116653
14.08646042,-4.149970093,-1.822310486,1.354233856,4.73043514
14.09652342,-3.843257904,-1.173858948,1.054107971,4.154481888
14.10658542,-3.826343079,-0.771795044,1.148711243,4.06891957
14.11664842,-4.16553772,-0.579295349,1.569486237,4.488939144
14.12671042,-4.588108978,-0.655187531,2.13426178,5.102459019
14.13677342,-5.020559692,-0.846789093,2.781964874,5.801930709
14.14683542,-5.305267639,-0.983155518,3.116070099,6.23075857
14.15689842,-5.297633514,-1.057401123,2.923271027,6.142355532
14.16696042,-5.147795105,-1.164578247,2.354004822,5.779046257
14.17702342,-5.093757477,-1.328786774,1.566492462,5.492352698
14.18708542,-5.100343781,-1.716630249,0.741707611,5.432352738
14.19714842,-4.683460693,-2.725981293,-0.077089691,5.419568331
14.20721042,-3.828738098,-3.985013123,-1.683099976,5.776884155
14.21727342,-2.640509033,-5.436993713,-6.534810791,8.901513392
14.22733542,0.692310333,-8.026159515,-14.81424362,16.86298741
14.23739842,4.645439758,-11.1384874,-11.20674545,16.46927915
14.24746042,8.448581085,-14.32341431,-0.812809753,16.64930567
14.25752342,15.23876083,-17.83780609,8.886270905,25.08730692
14.26758542,25.44019684,-21.92700256,9.516610107,34.90792066
14.27764842,29.59780106,-24.36767715,2.607876892,38.4267425
14.28771042,24.79848129,-23.56908783,-2.264341278,34.28693362
14.29777342,18.13014816,-18.84925278,-3.382366333,26.37113962
14.30783542,9.468260651,-12.38090378,-5.008584595,16.37133647
14.31789842,2.607727203,-8.545878754,-4.625680847,10.06127269
14.32796042,-0.771345978,-6.440955963,-2.643652496,7.004983002
14.33802342,-2.468367004,-6.014043732,-0.848435669,6.556020192
14.34808542,-3.540437622,-7.84892807,1.04258194,8.67337002
14.35814842,-3.420237579,-10.67115921,2.495460663,11.48037403
14.36821042,-2.168390808,-13.33232529,3.406466217,13.93042815
14.37827342,0.316891022,-16.1907811,4.269571381,16.74726999
14.38833542,4.22750885,-18.84072052,5.023703156,19.95199675
14.39839842,6.574478302,-20.85133942,3.830384674,22.19626021
14.40846042,6.533463593,-20.88651627,-2.471360779,22.02363123
14.41852342,0.379610596,-13.93377457,-7.714806976,15.9314916
14.42858542,-2.819237366,-8.796457672,-4.350103912,10.21024833
14.43864842,-3.576662292,-6.539451141,-0.802930298,7.496774736
14.44871042,-4.112547913,-6.075416107,0.396375732,7.347165775
14.45877342,-4.051325226,-6.36641098,0.772393799,7.585579545
14.46883542,-4.254153442,-7.391629028,1.070873108,8.595392395
14.47889842,-4.677622833,-8.783135376,1.690883789,10.09369657
14.48896042,-5.349276123,-9.77257782,2.384990387,11.39325289
14.49902342,-6.282884674,-10.3301683,2.295775909,12.30681129
14.50908542,-7.691605225,-10.40695862,1.958826599,13.08826116
14.51914842,-8.634644165,-10.51518356,2.68302063,13.86812045
14.52921042,-8.254584503,-10.44976959,2.758463745,13.59944749
14.53927342,-6.813082123,-10.23137375,1.685794373,12.40729622
14.54933542,-5.888604584,-9.682315521,1.21098175,11.39690197
14.55939842,-5.688620453,-8.687484283,1.621428223,10.5100816
14.56946042,-5.88785614,-7.770191803,2.681374054,10.11100872
14.57952342,-6.369704132,-7.018754425,3.869303741,10.23755615
14.58958542,-6.043083344,-6.435716858,5.073699188,10.18232445
14.59964842,-5.282664642,-6.153403931,5.063819733,9.561024837
14.60971042,-3.86825592,-6.598727875,3.656895447,8.478177737
14.61977342,-2.916684723,-7.666607208,2.557581482,8.592155661
14.62983542,-2.410736847,-8.708291016,1.958078156,9.245542419
14.63989842,-2.035317535,-9.499695282,1.543889465,9.837190788
14.64996042,-1.714983673,-9.795180817,1.459465027,10.05071014
14.66002342,-1.323547668,-9.667945404,1.747166748,9.913301086
14.67008542,-0.862955475,-9.27995224,2.223625946,9.581582232
14.68014842,-0.399070129,-8.860524445,2.449356537,9.201494327
14.69021042,-0.064665527,-8.617280273,2.197280731,8.893241454
14.70027342,0.135617981,-8.538244629,1.836081848,8.734483965
14.71033542,0.319136353,-8.684041443,1.677262115,8.850289939
14.72039842,0.503852234,-9.062155151,1.545536041,9.20680209
14.73046042,0.722547455,-9.665999451,1.32339798,9.782893356
14.74052342,0.944535828,-10.30067963,1.025218048,10.39457651
14.75058542,1.178798676,-11.06049957,0.642463989,11.14167748
14.76064842,2.222578125,-13.0016629,-2.170785828,13.36769998
14.77071042,4.609963531,-15.46224609,-8.447682953,18.2125277
14.78077342,4.763544159,-15.42317734,-8.372239838,18.18406313
14.79083542,2.541864166,-14.01281021,-4.608167267,14.96847116
14.80089842,0.799786835,-12.93340485,-2.431094513,13.18418903
14.81096042,0.183967438,-12.27297821,-0.962797852,12.31205986
14.82102342,0.265547791,-11.94246552,0.426014099,11.9530116
14.83108579,0.502654724,-12.39362732,1.664688263,12.51502485
14.84114879,1.111738129,-13.56479187,3.532204742,14.06115253
14.85121079,1.756896515,-15.44952255,5.842350769,16.61046342
14.86127379,2.3436763,-17.68437515,8.209677887,19.63743247
14.87133579,3.550317078,-18.88862091,9.806557159,21.57668451
14.88139879,4.481081543,-16.25799133,5.453459473,17.72406822
14.89146079,4.900808716,-13.00555481,0.916843414,13.92849539
14.90152279,5.93815155,-10.59466827,-2.523751831,12.40475566
14.91158579,7.104376373,-8.912616119,-3.57815918,11.9461338
14.92164879,7.888894958,-7.733667755,-3.259621582,11.51822093
14.93171079,8.256829834,-6.620283051,-3.657793579,11.19744794
14.94177379,8.59542572,-6.26701767,-4.24502243,11.45325583
14.95183579,7.486082611,-8.048912201,-3.755390625,11.61591061
14.96189779,4.283941498,-10.63613205,-3.007545776,11.8543153
14.97196079,1.761985931,-13.31106949,-1.985471191,13.57318169
14.98202279,0.22812561,-17.09385315,-0.621806946,17.10668
14.99208579,-1.463057556,-21.15625534,0.702638855,21.21842074
15.00214779,-3.38506073,-24.49536163,1.858385468,24.79788245
15.01221079,-5.598058777,-26.65866302,2.854264526,27.38922055
15.02227279,-7.249125366,-27.41833328,3.487747192,28.57410014
15.03233579,-7.78456192,-26.60537384,3.188818817,27.90365365
15.04239779,-7.25690918,-24.20002579,1.823657684,25.3304107
15.05246079,-6.683002625,-20.95312775,1.002914429,22.01594703
15.06252279,-6.604715424,-17.90336975,0.495619354,19.08922609
15.07258579,-7.193590851,-15.69246735,0.173489227,17.26358535
15.08264779,-7.95311142,-13.99829041,-0.098046112,16.10011579
15.09271079,-8.596922607,-12.16131042,-0.241597595,14.89506358
15.10277279,-8.507259064,-10.01477417,-0.124840393,13.14095672
15.11283579,-7.588769073,-8.404273224,-0.26330246,11.32654195
15.12289779,-7.181765442,-7.001689911,-0.133971405,10.03092044
15.13296079,-6.834786987,-5.602250061,0.05269043,8.837550293
15.14302279,-6.089337158,-4.309687958,-0.263152771,7.464763004
15.15308579,-5.250032501,-3.187621307,-0.370479584,6.153131397
15.16314779,-4.515210571,-2.232756958,0.059127045,5.037442421
15.17321079,-3.866160278,-1.585203552,0.978515167,4.29156819
15.18327279,-3.549418945,-1.178199921,1.916464691,4.202304941
15.19333579,-3.475622406,-0.911604309,2.730172577,4.512739282
15.20339779,-3.601211243,-0.715661774,3.289409637,4.929615599
15.21346079,-4.008963318,-0.617166595,3.379671936,5.27966513
15.22352279,-4.660558319,-0.664917297,3.157533875,5.668592332
15.23358579,-5.008584595,-0.63767395,2.855611725,5.800609109
15.24364779,-5.201383667,-0.68332901,2.199376373,5.688460866
15.25371079,-5.432053986,-1.01683548,1.293460236,5.675755833
15.26377279,-5.424868927,-1.583257599,0.406404877,5.665780831
15.27383579,-4.549189911,-2.438878326,-0.528251495,5.188670926
15.28389779,-3.00125885,-3.398233337,-2.171534271,5.027037457
15.29396079,-1.331780548,-4.443809052,-5.456902313,7.162322331
15.30402279,0.920585632,-6.302793274,-10.33795212,12.14273177
15.31408579,3.959416351,-8.964408417,-11.09822113,14.80567825
15.32414779,6.857389984,-11.52573212,-3.813020782,13.94293462
15.33421079,11.10091553,-14.44750626,6.937922516,19.49603886
15.34427279,19.24383224,-19.74933105,11.15240845,29.74453514
15.35433579,25.89869339,-25.2164122,7.603139191,36.93802227
15.36439779,25.0849855,-25.91680573,-0.216300201,36.06915722
15.37446079,21.61714691,-23.33617218,-4.135599976,32.0777362
15.38452279,15.16421585,-16.91737015,-5.873486023,23.46590491
15.39458579,7.820786591,-11.12875763,-6.952741699,15.27594732
15.40464779,2.625240784,-8.275690613,-4.101470947,9.602135607
15.41471079,-0.604443054,-6.340814209,-1.131646729,6.469304488
15.42477279,-2.600841522,-5.621559906,0.674796753,6.230703256
15.43483579,-3.957320709,-6.968159637,2.116748199,8.28832063
15.44489779,-4.26732605,-9.067843323,3.2341745,10.53070457
15.45496079,-2.674338684,-11.03131027,4.121978302,12.07611688
15.46502279,-0.00823288,-13.84635635,5.297783203,14.82525409
15.47508579,3.385809174,-17.71580978,6.071973267,19.03109244
15.48514779,6.2798909,-21.09263763,3.27384201,22.24981873
15.49520979,6.574777679,-21.07946503,-5.746999054,22.81665062
15.50527279,-0.593815155,-14.60692474,-10.00414627,17.71433909
15.51533479,-3.549568634,-9.877509613,-4.467160492,11.40702225
15.52539779,-4.588707733,-7.524402924,-0.959055634,8.86525046
15.53545979,-4.970264282,-7.171137543,0.164657593,8.726732081
15.54552279,-4.706512756,-7.702233124,0.65997757,9.050482187
15.55558479,-5.058730316,-8.606802063,1.220262451,10.05767541
15.56564779,-5.596412201,-9.331744537,2.093396759,11.08077595
15.57570979,-6.144871674,-9.802066498,2.132615204,11.76384304
15.58577279,-6.566694489,-9.845326538,1.92364975,11.98967721
15.59583479,-7.192243652,-9.523196411,2.505040741,12.19405051
15.60589779,-8.096363525,-9.237440643,3.315006409,12.72284086
15.61595979,-7.524402924,-9.251361694,2.900967407,12.27273174
15.62602279,-6.798412628,-9.026678925,1.919608154,11.46229655
15.63608479,-6.00371521,-8.411308594,1.872456207,10.50241881
15.64614779,-5.664520569,-7.769742737,2.428100739,9.917225855
15.65620979,-6.308631134,-7.340585175,4.144730988,10.52909362
15.66627279,-6.591393127,-7.020101624,5.646108856,11.16274318
15.67633479,-5.818699951,-6.744225311,5.85043396,10.6568955
15.68639779,-4.17601593,-6.56998764,4.251459045,8.870104321
15.69645979,-2.841391296,-6.940167847,2.548749847,7.920578263
15.70652279,-2.358196106,-7.826325073,1.592089233,8.327496692
15.71658479,-1.970951385,-8.783285065,0.98989151,9.055972123
15.72664779,-1.7106427,-9.702673187,0.660875702,9.874458067
15.73670979,-1.420695648,-10.36085449,0.674946442,10.47956271
15.74677279,-1.077908478,-10.65843567,1.059496765,10.76506716
15.75683479,-0.744252319,-10.62131287,1.65331192,10.77495424
15.76689779,-0.277672577,-10.35052597,2.17168396,10.57954163
15.77695979,0.15911911,-9.974058838,2.355052643,10.24955811
15.78702279,0.501008148,-9.519005127,2.145338745,9.770616465
15.79708479,0.735570374,-9.374106445,1.92245224,9.597434972
15.80714779,0.834364929,-9.717342682,1.748963013,9.908672224
15.81720979,1.006357269,-10.44976959,1.571731567,10.61512033
15.82727267,1.501527557,-11.72661438,0.486488342,11.8323599
15.83733467,3.463048553,-13.07516006,-3.154240723,13.88890746
15.84739767,5.264851685,-13.71777374,-6.928492126,16.2449987
15.85745967,5.09450592,-13.28771805,-7.646698608,16.15516763
15.86752267,3.463647308,-12.47445923,-6.081703033,14.30370922
15.87758467,1.524280243,-12.24348953,-3.812571716,12.91364276
15.88764767,0.084873505,-12.0009938,-1.55855896,12.10207263
15.89770967,-0.564476166,-11.9041452,0.165106659,11.91866463
15.90777267,-0.399968262,-12.1310733,1.361867981,12.21382817
15.91783467,0.033380585,-12.77054352,2.830763397,13.08056258
15.92789767,0.623303833,-14.10786255,5.269042969,15.07259457
15.93795967,1.032552795,-16.32205811,7.353009338,17.93160596
15.94802267,1.63460083,-18.29899704,9.039701843,20.47538576
15.95808467,2.822530518,-18.77934814,8.27254715,20.71389948
15.96814667,4.098926239,-16.40124344,4.376449127,17.46296909
15.97820967,4.933889923,-13.31121918,0.697699127,14.21332508
15.98827167,6.902146912,-11.07037903,-3.557502136,13.52215757
15.99833467,8.846004639,-9.670190735,-4.775519257,13.94883404
16.00839667,9.533674622,-8.180189209,-4.556374969,13.3628964
16.01845967,9.819131012,-6.372398529,-5.22563324,12.81912788
16.02852167,9.213490448,-5.912854156,-4.106710052,11.69253257
16.03858467,7.601791992,-6.881938934,-2.49815506,10.55410364
16.04864667,5.805078278,-8.014334106,-2.596051483,10.23073645
16.05870967,3.348536682,-10.43914169,-2.481090546,11.24029303
16.06877167,1.526375885,-14.14378784,-1.049916687,14.26460244
16.07883467,-0.296832733,-18.08733719,0.338595886,18.09294126
16.08889667,-2.565065918,-21.91427902,1.413809967,22.10913944
16.09895967,-5.088817749,-25.26221695,2.713856506,25.91217259
16.10902167,-7.173532562,-27.57460831,3.840713196,28.7501247
16.11908467,-8.476423187,-28.37798767,4.127666473,29.90313637
16.12914667,-8.590935059,-27.23436584,2.846480713,28.69873343
16.13920967,-8.188122711,-24.67528748,1.395098877,26.03577282
16.14927167,-7.855514374,-21.03111557,0.550106049,22.45706002
16.15933467,-8.087382202,-17.73227554,0.031734009,19.48949342
16.16939667,-8.492888947,-15.11017822,-0.578546906,17.34304948
16.17945967,-8.748856659,-12.49691254,-1.054107971,15.29138514
16.18952167,-7.810009003,-10.10653336,-1.390907593,12.84806916
16.19958467,-6.796167297,-8.310568085,-1.204844513,10.80301264
16.20964667,-6.078858948,-6.833888855,-0.683179321,9.171766295
16.21970967,-5.500761108,-5.59416687,-0.19070343,7.847894211
16.22977167,-4.838837585,-4.378544769,-0.016615448,6.525816389
16.23983467,-4.078269196,-3.384611664,0.269739075,5.306659487
16.24989667,-3.392994232,-2.336940308,0.75817337,4.18909617
16.25995967,-2.768492889,-1.341809692,1.286574554,3.334708415
16.27002167,-2.331701202,-0.644409943,1.796414337,3.013170945
16.28008467,-2.323468323,-0.337548065,2.178419952,3.202804589
16.29014667,-2.772833862,-0.170495453,2.577789459,3.789811977
16.30020967,-3.507805481,-0.20597168,2.981050873,4.608013447
16.31027167,-4.324357452,-0.412093048,3.276087341,5.440830481
16.32033467,-4.98807724,-0.633183289,3.503015442,6.128046411
16.33039667,-5.664969635,-0.820443878,3.464096375,6.690663107
16.34045867,-6.384074249,-1.172511749,2.814896393,7.074943782
16.35052167,-6.946903839,-1.723366241,1.54448822,7.322220156
16.36058367,-6.9022966,-2.455793152,0.358354797,7.334918986
16.37064667,-5.853427734,-3.383114777,-0.850082245,6.81400922
16.38070867,-4.233197021,-4.44755127,-3.521127777,7.078065424
16.39077167,-1.96107193,-5.907615051,-9.784552917,11.59668895
16.40083367,2.456092529,-8.286318512,-15.88616455,18.08495754
16.41089667,7.139702911,-11.15525253,-8.399483185,15.68331389
16.42095867,12.14125214,-14.67293747,7.108717346,20.3282798
16.43102167,21.88598785,-21.8335968,14.7561644,34.25560978
16.44108367,27.34199203,-28.29146759,10.12494507,40.62642218
16.45114667,24.52260498,-28.97150345,-0.271235962,37.95760446
16.46120867,20.97857483,-25.08947617,-5.076393585,33.09610533
16.47127167,15.57810516,-17.10657669,-5.074447632,23.68675464
16.48133367,9.689201202,-10.27149033,-5.32502655,15.09105832
16.49139667,4.628375244,-6.7244664,-4.002077637,9.091585735
16.50145867,0.982407074,-4.82312027,-1.844763794,5.256497527
16.51152167,-1.637145538,-4.146676941,0.870439911,4.542338693
16.52158367,-3.25049057,-4.802463226,3.465593262,6.755714517
16.53164667,-4.030817871,-7.536078644,4.544549561,9.67950953
16.54170867,-3.601809998,-11.75116333,4.98927475,13.26483085
16.55177167,-2.014361115,-16.52623352,5.938600616,17.67600131
16.56183367,0.833317108,-20.830383,5.666316833,21.60338908
16.57189667,3.000959473,-22.18731125,1.780098267,22.45999306
16.58195867,2.574346619,-19.26329178,-8.84001709,21.35058718
16.59202067,-2.753973083,-12.05009171,-12.43179794,17.53107749
16.60208367,-3.895948334,-8.366701355,-4.259242859,10.16470633
16.61214567,-4.417463837,-7.544012146,-0.502505035,8.756632761
16.62220867,-4.377646637,-7.984246674,0.156125336,9.106940218
16.63227067,-4.423451385,-8.836723938,0.616268463,9.901232193
16.64233367,-4.805307312,-10.05309448,1.171014862,11.2038816
16.65239567,-5.295388184,-10.89434509,1.738035736,12.23718347
16.66245867,-5.851481781,-10.94763428,1.927990723,12.56215282
16.67252067,-6.368955688,-10.51877609,1.879491577,12.43948293
16.68258367,-6.920408936,-9.996661835,1.938468933,12.31190357
16.69264567,-6.983727264,-9.360335083,2.874622192,12.02712651
16.70270867,-6.43661499,-9.06110733,3.332669678,11.60346352
16.71277067,-5.821693726,-8.802894287,2.198328552,10.78033924
16.72283367,-5.558840332,-8.0396315,2.06869812,9.99079038
16.73289567,-6.119723969,-7.128326569,3.344495087,9.972447468
16.74295867,-7.198680267,-6.359974365,5.068909149,10.86112846
16.75302067,-7.042255554,-5.969586182,6.794221344,11.46258113
16.76308367,-5.738766174,-5.343288574,7.109615479,10.58446041
16.77314567,-3.599864044,-5.086422729,4.349056091,7.599013502
16.78320867,-2.295027466,-5.523214417,2.335892487,6.421015673
16.79327067,-1.896556091,-6.491850128,1.418749695,6.91041922
16.80333367,-1.830693054,-7.631729736,0.969084778,7.907835427
16.81339567,-1.798959045,-8.713081055,0.749491425,8.928368972
16.82345867,-1.573677521,-9.503886566,0.858614502,9.671480738
16.83352104,-1.107097778,-9.943073273,1.458267517,10.11023816
16.84358304,-0.579295349,-10.18122803,2.201921082,10.43271028
16.85364604,-0.278421021,-10.2957399,2.466870117,10.59080859
16.86370804,0.019609222,-10.26894562,2.539169769,10.57823292
16.87377104,0.347876587,-10.13976425,2.47824646,10.44401947
16.88383304,0.695603485,-10.31744476,2.266287231,10.58629248
16.89389604,0.971928864,-10.75633209,1.865271149,10.9600439
16.90395804,0.950822754,-11.34176468,1.367556152,11.46341571
16.91402104,0.950373688,-12.18181778,0.884211273,12.25078463
16.92408304,2.276466064,-13.96775391,-0.97821579,14.18581521
16.93414604,4.896617432,-15.89110428,-5.34149231,17.46526832
16.94420804,5.081333313,-15.0666188,-7.477250977,17.5707778
16.95427104,3.640579376,-13.43441299,-8.042475586,16.07540619
16.96433304,1.880838776,-12.25800934,-6.991810455,14.23663446
16.97439604,0.610879669,-11.73065598,-3.67875,12.30912934
16.98445804,-0.079035645,-11.5047757,-1.087338867,11.55631499
16.99452104,-0.141006775,-11.67796555,0.207917633,11.68066744
17.00458304,0.301323395,-12.33375183,2.323019257,12.55422831
17.01464604,0.811462555,-13.75310028,6.706054688,15.32244786
17.02470804,0.570463715,-15.96894241,10.08393036,18.8949253
17.03477104,0.668809204,-17.94797699,11.79262711,21.48588462
17.04483304,0.736767883,-18.6140918,10.08123596,21.18156177
17.05489604,1.446891174,-16.51830002,5.807323608,17.5690847
17.06495804,2.166295166,-14.01909714,2.437680817,14.39340846
17.07502104,2.55668335,-11.75595337,0.353714447,12.03595378
17.08508304,3.906725922,-9.482032013,-3.440295868,10.81698083
17.09514504,6.937772827,-8.222551117,-7.468269653,13.09649153
17.10520804,8.923393707,-7.825426941,-6.678362274,13.61854562
17.11527004,9.726324005,-7.40315506,-6.603368225,13.89289586
17.12533304,8.91605896,-7.807913361,-4.672533417,12.73939508
17.13539504,6.942263489,-8.942254486,-2.33080307,11.55818241
17.14545804,4.63241684,-10.29828461,-1.922003174,11.45460815
17.15552004,2.052980804,-12.36234238,-1.146615601,12.58399645
17.16558304,0.1685495,-15.39279053,0.36149826,15.39795734
17.17564504,-1.996847534,-18.59328506,1.350940704,18.74893838
17.18570804,-3.994443512,-21.51895111,2.17632431,21.99448166
17.19577004,-5.591472473,-23.60276779,2.834804993,24.42112469
17.20583304,-6.902895355,-24.45479599,3.206931152,25.61193899
17.21589504,-7.259902954,-23.98986282,2.895129547,25.23096281
17.22595804,-6.887327728,-22.57261002,1.861079865,23.6732259
17.23602004,-6.468498688,-20.50061874,1.307530975,21.53663115
17.24608304,-6.179898834,-17.76490768,1.017733612,18.83663655
17.25614504,-6.459517365,-15.54247925,0.867446136,16.85367878
17.26620804,-7.035519562,-13.6068544,0.650397491,15.33192875
17.27627004,-7.553143158,-11.41331589,0.595012665,13.69918944
17.28633304,-6.846313019,-9.52678894,0.067210236,11.73184669
17.29639504,-5.904321899,-7.921377411,-1.023272095,9.932588935
17.30645704,-5.491330719,-6.550677795,-2.088457031,8.799303689
17.31652004,-5.140460358,-5.599705353,-2.436632996,7.982368889
17.32658204,-4.540957031,-5.070256348,-1.749412079,7.027676203
17.33664504,-4.034111023,-4.697232056,-0.585133209,6.219358617
17.34670704,-3.72440506,-4.064647522,0.372724915,5.525529512
17.35677004,-3.677103424,-3.285817108,1.348545685,5.11236336
17.36683204,-3.750750275,-2.519710236,2.097588043,4.981660656
17.37689504,-3.93037674,-1.838476868,2.603835297,5.060416659
17.38695704,-4.10236908,-1.30229187,2.995121613,5.243677112
17.39702004,-4.397405548,-0.929417267,3.164269867,5.496689531
17.40708204,-4.750371552,-0.71491333,3.178190918,5.760037192
17.41714504,-5.20692215,-0.645607452,3.059188385,6.073506469
17.42720704,-5.664221191,-0.787212982,2.789299622,6.362648691
17.43727004,-6.168522491,-1.266216888,2.062560883,6.626321176
17.44733204,-6.497837677,-1.951342163,0.941242676,6.849494032
17.45739504,-6.049819336,-2.598147125,-0.137264557,6.585554194
17.46745704,-4.540657654,-3.42487793,-1.285377045,5.830913729
17.47752004,-2.752625885,-4.531376953,-4.100273438,6.702430053
17.48758204,-0.35685791,-6.413413239,-9.941127319,11.83576061
17.49764504,3.942202148,-8.992849274,-13.08339294,16.35810095
17.50770704,7.920928345,-11.75475586,-4.394711151,14.84011042
17.51776904,13.08728485,-15.44398407,8.596174164,21.9929052
17.52783204,22.08222977,-22.01816299,12.37356903,33.5489133
17.53789404,27.30067795,-27.0876709,6.676266632,39.03385027
17.54795704,24.89158768,-26.24806686,-1.037642212,36.18879457
17.55801904,20.85523132,-22.42232254,-3.746708679,30.85026819
17.56808204,13.82345398,-15.37812103,-4.444707184,21.15017514
17.57814404,6.939269714,-9.890233154,-5.345982971,13.21172623
17.58820704,2.26179657,-7.624844055,-3.542832642,8.70664308
17.59826904,-0.990041199,-7.881560211,-0.828826447,7.986621702
17.60833204,-3.078049164,-10.31594788,1.059197388,10.81735025
17.61839404,-2.768492889,-11.90294769,3.071911926,12.60084757
17.62845704,-0.718056793,-12.58971954,6.032305756,13.9787466
17.63851904,1.566193085,-14.38373886,7.30136673,16.20663014
17.64858204,2.800376587,-16.47324371,6.098318481,17.78761805
17.65864404,3.487148438,-17.39592499,2.313888245,17.89224662
17.66870704,2.220632172,-14.5889621,-2.761607208,15.01317743
17.67876904,-2.697989502,-9.992470551,-7.34702179,12.69280679
17.68883204,-5.104235687,-7.453600159,-6.865473175,11.34654569
17.69889404,-6.354884949,-6.435118103,-2.608475647,9.41272824
17.70895604,-6.05056778,-6.665489044,-0.413739624,9.011620006
17.71901904,-5.414390717,-7.830067291,0.333057404,9.525571261
17.72908104,-5.522615662,-9.718091125,0.788859558,11.20548429
17.73914404,-6.059399414,-11.38188126,1.136436768,12.94430495
17.74920604,-6.793023834,-12.03377563,1.142274628,13.86584726
17.75926904,-7.443571014,-11.87390808,1.043779449,14.0529683
17.76933104,-8.445437622,-11.14312775,1.698368225,14.08471396
17.77939404,-8.424032135,-10.18886215,2.899769897,13.53461838
17.78945604,-6.871161346,-9.789642334,3.099155273,12.35535182
17.79951904,-6.028713226,-9.21214325,2.06046524,11.20064656
17.80958104,-5.659131775,-8.301886139,2.148033142,10.27429473
17.81964404,-5.713768158,-7.571704559,2.718047791,9.867402915
17.82970646,-6.419999542,-7.122039642,4.06015686,10.41271898
17.83976946,-6.203100586,-6.988816681,5.371130676,10.77826796
17.84983146,-5.018314362,-6.635401611,6.683002625,10.67120226
17.85989446,-3.675606537,-6.198759613,5.641917572,9.152373356
17.86995646,-2.397115173,-6.375092926,3.49148941,7.653657248
17.88001946,-1.979932709,-7.067702637,2.257156219,7.679017404
17.89008146,-1.898352356,-8.029302979,1.580563202,8.400692116
17.90014346,-1.783990173,-8.965605927,1.128054199,9.21071207
17.91020646,-1.707349548,-9.75147171,0.936901703,9.944044841
17.92026846,-1.315015411,-10.43031006,1.214723969,10.58282513
17.93033146,-0.765059052,-10.93790451,1.739981689,11.10182898
17.94039346,-0.1579216,-10.99688187,2.239792328,11.2237703
17.95045646,0.390238495,-10.56622742,2.680176544,10.90783178
17.96051846,0.814905396,-10.15563126,2.791994019,10.56390778
17.97058146,1.19930603,-9.794282684,2.555036774,10.19286619
17.98064346,1.527573395,-9.809251556,2.076332245,10.14229028
17.99070646,1.745520172,-10.60544586,1.835932159,10.90380528
18.00076846,2.830314331,-12.90271866,0.320184174,13.21337754
18.01083146,5.126389618,-14.72502914,-4.887187042,16.33985774
18.02089346,5.233117676,-14.51292023,-7.299420776,17.06727623
18.03095646,4.000431061,-13.64981506,-7.719297638,16.183586
18.04101846,2.756966858,-12.93115952,-7.494614868,15.19819084
18.05108046,1.511856079,-12.28091171,-5.112767944,13.38831197
18.06114346,0.445323944,-11.79068115,-1.55152359,11.90065968
18.07120546,0.115559692,-11.71463928,0.47271698,11.72474259
18.08126846,0.209863586,-11.93393326,2.014660492,12.10461328
18.09133046,0.689017181,-12.74749146,4.958887939,13.69539531
18.10139346,1.22041214,-15.07919266,8.535400543,17.37021933
18.11145546,1.418450317,-18.04751999,10.86665268,21.11419237
18.12151846,1.630409546,-19.21075104,9.405241699,21.45156782
18.13158046,2.574496307,-17.50429962,5.408552856,18.50083729
18.14164346,3.383563843,-14.36113586,2.467169495,14.95919961
18.15170546,4.182153168,-11.58800262,-0.265547791,12.32244803
18.16176846,6.481222229,-9.712552643,-4.182302856,12.40288586
18.17183046,8.489895172,-8.773555298,-4.39486084,12.97568474
18.18189346,9.309740295,-7.957901459,-4.215683441,12.95266177
18.19195546,9.610315247,-7.636370087,-4.777914276,13.17196918
18.20201846,9.350904694,-8.565787354,-4.4697052,13.44583192
18.21208046,7.028933258,-10.19874161,-4.262386322,13.09916678
18.22214246,2.994373169,-12.10906906,-3.250789948,12.89044062
18.23220546,0.682430878,-14.93743744,-1.235680389,15.00398798
18.24226746,-1.395997009,-18.46215775,0.587228851,18.52417107
18.25233046,-3.560196533,-21.6770224,2.067350922,22.06450179
18.26239246,-5.465135193,-24.25930252,3.41904007,25.10122102
18.27245546,-7.147337036,-25.84121292,4.187541962,27.13647397
18.28251746,-7.95894928,-25.99479355,4.311035156,27.5256097
18.29258046,-7.829917603,-24.87811569,3.430416412,26.30581698
18.30264246,-6.988367615,-22.86225769,2.142644348,24.00231308
18.31270546,-6.589297485,-20.33162018,1.5925383,21.43198075
18.32276746,-6.738387451,-17.65698212,1.454674988,18.95497197
18.33283046,-7.495213623,-15.35012924,1.464404755,17.14494609
18.34289246,-9.075477448,-12.95690598,2.020198975,15.94763015
18.35295546,-8.771309967,-10.63628174,2.481988678,14.00809179
18.36301746,-7.349566498,-8.576265564,2.200723572,11.50702581
18.37307946,-6.754703522,-6.856491852,0.894689484,9.666331747
18.38314246,-6.347250824,-5.145699463,-1.319356384,8.276866391
18.39320446,-5.586532745,-3.797004089,-3.248245239,7.49517747
18.40326746,-4.693489838,-3.224893799,-3.725452881,6.804982442
18.41332946,-4.213587799,-2.769989777,-2.454745331,5.608292088
18.42339246,-4.229005737,-2.405797119,-0.585432587,4.900518403
18.43345446,-4.258793793,-2.00433197,1.149759064,4.845267497
18.44351746,-4.290078735,-1.558409271,2.550995178,5.228861388
18.45357946,-4.602030029,-1.240769806,3.456911316,5.887989975
18.46364246,-4.895569611,-1.016985168,3.896696777,6.339172377
18.47370446,-5.263654175,-0.765059052,3.946094055,6.622916949
18.48376746,-5.623206482,-0.370479584,3.515738983,6.642147759
18.49382946,-5.919889526,-0.049696655,2.433040466,6.400566199
18.50389246,-6.400839386,-0.270188141,0.83780777,6.461088789
18.51395446,-6.61219986,-1.098415833,-0.657881927,6.735021377
18.52401746,-5.682932281,-2.185006256,-2.053280182,6.425412918
18.53407946,-3.701951752,-3.244353333,-5.03253479,7.039650682
18.54414146,-0.830173645,-4.605023804,-11.75879745,12.65562128
18.55420446,2.459834747,-6.856342163,-14.31578018,16.06243372
18.56426646,5.410947876,-9.504934387,-9.17232605,14.27423202
18.57432946,8.330326996,-12.10817093,2.351160736,14.88388753
18.58439146,13.80743729,-15.55849594,13.95173721,25.04721724
18.59445446,21.57658127,-21.27196472,14.64958603,33.6549508
18.60451646,25.52686661,-25.06537628,5.985303497,36.27282543
18.61457946,24.19209229,-24.3299556,-3.04451889,34.44521975
18.62464146,20.11052994,-20.68892715,-4.850513306,29.25735122
18.63470446,13.3785791,-14.7057193,-5.519172821,20.63263986
18.64476646,6.837331696,-10.38555313,-5.963448944,13.79026983
18.65482946,2.271825714,-8.047265625,-4.070934448,9.300117386
18.66489146,-0.38380188,-6.761589203,-1.264420624,6.889495769
18.67495346,-1.681004333,-6.872957611,1.834584961,7.309515981
18.68501646,-2.024989014,-8.304580536,4.659510498,9.735382708
18.69507846,-1.671873322,-10.01237915,5.254672852,11.43041922
18.70514146,-0.949625244,-12.55753647,4.718787231,13.4484372
18.71520346,1.070274353,-16.39899811,3.917353821,16.89432707
18.72526646,3.836821289,-19.14563644,2.219434662,19.65203508
18.73532846,4.005520477,-18.83458328,-1.184486847,19.29219352
18.74539146,0.926273804,-14.81035172,-7.068600769,16.43683722
18.75545346,-2.936743011,-9.398056641,-6.1710672,11.6202409
18.76551646,-3.785927124,-7.27202774,-1.803449707,8.394525746
18.77557846,-4.37959259,-7.354356537,0.119750977,8.560474965
18.78564146,-4.308789825,-8.008346558,0.494272156,9.107337114
18.79570346,-4.411326599,-8.749754791,0.894240417,9.83959741
18.80576646,-4.511917419,-9.762099609,1.300495605,10.83269479
18.81582846,-4.503085785,-10.63224014,1.567540283,11.65244586
18.82589004,-4.743336182,-11.0349028,1.681303711,12.12827688
18.83595304,-5.159770203,-10.90602081,2.593955841,12.34071009
18.84601504,-6.083648987,-10.64182022,3.013982391,12.62312214
18.85607804,-6.630461884,-10.33840118,2.842439117,12.60654687
18.86614004,-6.781946869,-9.905501404,2.862796783,12.34136811
18.87620304,-6.262976074,-9.654174042,2.493065643,11.77468989
18.88626504,-5.77903244,-8.893306274,3.028951263,11.0300797
18.89632804,-6.556665344,-7.735913086,4.439468079,11.06991818
18.90639004,-7.894882507,-6.633605347,5.565127258,11.71770161
18.91645304,-7.747888184,-6.109545135,6.4869104,11.8083157
18.92651504,-6.055507507,-5.660478973,5.171595612,9.770137898
18.93657804,-3.939507751,-5.550607452,3.03868103,7.454028898
18.94664004,-2.692600708,-5.94398941,1.641187134,6.728640568
18.95670304,-2.446362762,-6.795568542,0.773890686,7.263838474
18.96676504,-2.387984161,-7.785460052,0.418230286,8.154187461
18.97682704,-2.310295715,-8.724607086,0.302969971,9.03039456
18.98689004,-2.177821198,-9.442214813,0.314945068,9.695231619
18.99695204,-1.93996582,-9.866282959,0.467627563,10.06606588
19.00701504,-1.435065765,-9.854008484,0.877924347,9.996581821
19.01707704,-0.742605743,-9.464518433,1.496887207,9.610891934
19.02714004,-0.162561951,-9.067394257,1.851350098,9.255893375
19.03720204,0.151035919,-8.879235535,2.027833099,9.109102185
19.04726504,0.444276123,-9.012907562,2.22781723,9.294786367
19.05732704,0.818946991,-9.538614349,2.276166687,9.8405677
19.06739004,1.138382721,-10.42806473,2.02888092,10.68441889
19.07745204,1.265318756,-11.56989029,1.679208069,11.75938487
19.08751504,1.368005219,-12.66785706,1.275198212,12.80516189
19.09757704,1.459315338,-13.63589401,0.920286255,13.7446038
19.10763904,1.512754211,-14.41203003,0.619711304,14.50445025
19.11770204,1.742975464,-14.91348724,-0.000149689,15.01499468
19.12776404,4.072281647,-16.38627457,-2.825524292,17.11949355
19.13782704,5.779930573,-17.00344116,-4.196822662,18.44282867
19.14788904,4.258943481,-15.01662277,-2.43962677,15.79839669
19.15795204,3.058290253,-14.18794601,-1.787283325,14.62345148
19.16801404,3.247047729,-15.13293091,-0.898731079,15.50343944
19.17807704,4.172124023,-16.56949356,1.08464447,17.12107442
19.18813904,4.943470001,-16.63610504,2.547103271,17.5409698
19.19820204,4.64529007,-13.91506348,2.267484741,14.84416378
19.20826404,4.262236633,-11.54579041,1.240620117,12.36976457
19.21832704,4.704566803,-10.13078293,0.56866745,11.18432359
19.22838904,5.440436554,-8.912616119,0.313747559,10.44660297
19.23845104,6.513105927,-7.857460327,-0.313448181,10.21070425
19.24851404,7.017556915,-7.102879486,-0.855770416,10.02144426
19.25857604,6.676116943,-7.047344971,-0.660576324,9.729952192
19.26863904,5.996380463,-7.992479553,-0.622405701,10.0111786
19.27870104,5.257367249,-10.20772293,-0.924926605,11.51924507
19.28876404,4.549788666,-12.85856049,-1.340163116,13.70544388
19.29882604,2.708168335,-15.78587311,-1.704954529,16.10698095
19.30888904,0.322579193,-18.74387192,-1.340761871,18.79453203
19.31895104,-1.710193634,-21.2842392,-0.321231995,21.35525206
