Time (s),Acceleration x (m/s^2),Acceleration y (m/s^2),Acceleration z (m/s^2),Absolute acceleration (m/s^2)
-0.001725958,-5.550008698,7.44521759,5.385051727,10.73464688
0.008251042,-5.450615387,7.524103546,5.667813721,10.88326489
0.018227042,-5.417085114,7.841593323,5.529501343,11.01865609
0.028204042,-5.229525146,8.208031311,5.137765961,11.00528738
0.038181042,-4.787344666,8.461903381,5.012326813,10.93827673
0.048158042,-4.508025513,8.18587738,5.184768219,10.68703439
0.058135042,-4.363875275,7.860304413,5.141807556,10.35692898
0.068112042,-4.148922272,7.664212189,4.981490936,10.03837419
0.078088042,-3.911515961,7.51197876,4.832850037,9.75121641
0.088065042,-3.666176147,7.316185913,4.801415405,9.487940438
0.098042042,-3.488495636,7.124135284,4.794080658,9.268555158
0.108019042,-3.282673645,6.888525238,4.829706573,9.030713804
0.117996042,-3.121608582,6.719975739,4.920567627,8.894633204
0.127973041,-2.954555969,6.649472351,5.085374908,8.877269934
0.137949042,-2.76729538,6.616091766,5.068160706,8.781619834
0.147926042,-2.61281662,6.516399078,5.019212494,8.630339605
0.157903042,-2.61281662,6.475384369,5.027295685,8.604133618
0.167880542,-2.591411133,6.471193085,5.14016098,8.661004936
0.177857541,-2.557731171,6.487509155,5.370531921,8.801839404
0.187834542,-2.58242981,6.608158264,5.602848816,9.040387946
0.197810542,-2.64559845,6.762187958,5.827830963,9.310745989
0.207787542,-2.701282654,6.911277924,5.976471863,9.527901471
0.217764542,-2.739902344,7.076983337,5.914051666,9.621162358
0.227741542,-2.75442215,7.248825989,5.877228241,9.730063278
0.237718542,-2.690056,7.401209106,5.918542328,9.851062928
0.247695541,-2.686313782,7.516319733,6.041736145,10.01069027
0.257672542,-2.62568985,7.686515808,6.112089844,10.16535364
0.267648542,-2.428699493,8.026159515,6.187233582,10.42111689
0.277625542,-2.396067352,8.369695129,6.179898834,10.67633293
0.287602542,-2.588567047,8.087082825,6.274801483,10.55815901
0.297579542,-2.513123932,7.818690948,6.514303436,10.48255071
0.307556542,-2.507286072,7.59385849,6.758296051,10.47032644
0.317533541,-2.531086578,7.468119965,6.974596252,10.52730773
0.327509542,-2.401905212,7.408394165,7.186405792,10.59706945
0.337486542,-2.29921875,7.368127899,7.274722137,10.60647433
0.347463542,-2.274819489,7.379055176,7.369026031,10.67369681
0.357440541,-2.217788086,7.492818604,7.409292297,10.7684041
0.367417542,-1.954485626,7.554490356,7.45105545,10.78928014
0.377394542,-1.973346405,7.292235718,7.553741913,10.68315565
0.387370542,-2.195783844,7.030130768,7.566615143,10.55925518
0.397347542,-1.9481987,6.899003448,7.56691452,10.42352734
0.407324542,-1.800605621,6.819967804,7.49910553,10.29517971
0.417301542,-1.837878113,6.738986206,7.421716461,10.19184018
0.427278541,-1.852996674,6.737189941,7.441175995,10.20756705
0.437255542,-1.688189392,7.018904114,7.558981018,10.45242519
0.447231542,-1.647024994,7.182064819,7.632029114,10.60861041
0.457208542,-1.739682312,7.343279572,7.673492889,10.76256208
0.467185542,-1.654060364,7.57859024,7.781418457,10.98732993
0.477162542,-1.569486237,7.736362152,7.948620758,11.20246216
0.487139542,-1.509311371,7.756719818,8.069269867,11.29415067
0.497116541,-1.51410141,7.633526001,8.139773254,11.26140004
0.507092542,-1.573527832,7.424111481,8.22689209,11.1926393
0.517069542,-1.592837677,7.19718338,8.407865753,11.18162721
0.527046542,-1.525926819,6.90933197,8.709638214,11.22163619
0.537023542,-1.536704407,6.624624023,9.072184296,11.3380612
0.547000542,-1.386267242,6.375691681,9.093290405,11.19192171
0.556977542,-1.466799774,6.095923462,8.948242035,10.92624455
0.566953542,-1.45677063,6.178252258,8.891809387,10.92507464
0.576930542,-1.538500671,5.702092438,8.798104248,10.59657873
0.586907542,-1.780397644,5.05124588,8.492739258,10.04049405
0.596884542,-1.597478027,4.614005127,8.108787689,9.465379926
0.606861542,-1.237776031,4.376000061,7.833061066,9.057500301
0.616838542,-0.976120148,4.33872757,7.577093353,8.785767533
0.626814542,-0.712218933,4.413871307,7.319628754,8.577090463
0.636791542,-0.388741608,4.560865631,7.036717072,8.394522171
0.646768542,-0.144150238,4.680616608,6.702462158,8.176304184
0.656745542,0.010927277,4.748724976,6.312972107,7.899628164
0.666722542,0.122445374,4.820425873,5.924230499,7.638586615
0.676699542,0.198038177,4.910089417,5.655539246,7.492217386
0.686675542,0.191451874,5.078489227,5.473517761,7.469076471
0.696652542,0.112116852,5.241200867,5.435945892,7.551970899
0.706629542,-0.026195526,5.377118225,5.555996246,7.731958413
0.716606542,-0.12049942,5.646557922,5.669460297,8.002556875
0.726583542,-0.050894165,5.868396606,5.784271545,8.240052564
0.736560542,-0.193846893,5.95102478,5.946234741,8.414866615
0.746536542,-0.402962036,5.91824295,6.124364319,8.52618416
0.756513542,-0.620459747,5.702840881,6.374793549,8.575858978
0.766490542,-0.876726837,5.49118103,6.665638733,8.680579403
0.776467542,-1.141077118,5.276976471,6.999893646,8.840081941
0.786444542,-1.39240448,5.027445374,7.508236542,9.142626165
0.796421542,-1.412612457,4.906796265,8.045020294,9.528613492
0.806397541,-1.191372528,5.003046112,8.449778595,9.891844985
0.816374542,-0.915795593,5.223687286,8.692873077,10.18290886
0.826351542,-0.71371582,5.400469666,8.714877319,10.27733183
0.836328542,-0.649499359,5.579497375,8.399483185,10.10465032
0.846305542,-0.545615387,5.788612518,7.772437134,9.706518945
0.856282542,-0.456999664,5.914051666,7.082072754,9.237998176
0.866259542,-0.432301025,6.027216339,6.335275726,8.754995117
0.876235542,-0.386645966,6.049669647,5.855523376,8.4282354
0.886212542,-0.114960938,6.036347351,5.723647614,8.319305702
0.896189542,0.048499146,6.025719452,5.661975861,8.268592246
0.906166542,0.117206268,5.946833496,5.862558746,8.351536445
0.916143542,0.363444214,5.814808044,6.099366302,8.43482979
0.926119542,0.460741882,5.834267578,6.308780823,8.605328391
0.936096542,0.550555115,5.908064117,6.484066315,8.789280319
0.946073542,0.663121033,5.932613068,6.665489044,8.947869663
0.956050542,0.650996246,6.097570038,6.70111496,9.083451887
0.966027542,0.495469666,6.081703033,6.866970062,9.186287597
0.976004542,0.463585968,6.199508057,7.194638672,9.508503442
0.985981542,0.547711029,6.490353241,7.141798553,9.665917398
0.995957542,0.471220093,6.721173248,7.101981354,9.789502406
1.005934542,0.267194366,6.813680878,7.308701477,9.995736952
1.015911542,0.099842377,6.878496094,7.66166748,10.29683571
1.025888542,0.00583786,6.918013916,7.832162933,10.44996301
1.035865542,-0.100740509,6.963818665,7.871980133,10.51061322
1.045842542,-0.194745026,6.96905777,7.96358963,10.58416041
1.055818541,-0.299976196,6.993307343,8.139324188,10.73521921
1.065795542,-0.435444489,6.961872711,8.324189758,10.86045205
1.075772542,-0.608933716,6.946305084,8.584797821,11.05986927
1.085749542,-0.660276947,6.958579559,8.884624329,11.30461607
1.095726542,-0.692010956,6.918313293,9.097032623,11.4498009
1.105703542,-0.625549164,6.813231812,9.063951416,11.35634865
1.115679542,-0.477057953,6.728807373,8.678203583,10.99161728
1.125656541,-0.231119385,6.732998657,8.256380768,10.65619587
1.135633542,-0.034578094,6.810687103,8.00101181,10.50727579
1.145610542,0.04445755,6.872209167,7.994724884,10.54252632
1.155587542,0.224982147,7.036417694,8.036637726,10.6840693
1.165564542,0.307909698,7.250921631,8.109386444,10.88268447
1.175539792,0.21525238,7.309449921,8.287066956,11.05214325
1.185516792,0.149239655,7.317233734,8.375832367,11.12289305
1.195493792,0.082628174,7.305558014,8.383167114,11.12004929
1.205470792,-0.077389069,7.22292984,8.379724274,11.06329442
1.215447792,-0.284258881,7.044351196,8.446335754,11.0020123
1.225424792,-0.469723206,6.842421112,8.589288483,10.99159876
1.235400792,-0.670306091,6.624773712,9.020990753,11.21227948
1.245377792,-0.864152985,6.408174133,9.705217896,11.66202
1.255354792,-1.008452911,6.164181519,10.34274216,12.08248428
1.265331792,-1.035696259,5.904022522,10.72025711,12.28226613
1.275308792,-0.97701828,5.508694611,10.89838669,12.25051482
1.285285792,-0.787961426,4.938679962,11.01110229,12.09362711
1.295261791,-0.826281738,4.798721008,10.48180298,11.55762339
1.305238792,-0.198038177,4.035907288,9.571396179,10.38938841
1.315215792,0.153730316,3.597469025,8.863667908,9.567132547
1.325192792,0.047002258,4.036056976,7.865244141,8.840476827
1.335169792,-0.192499695,4.042044525,6.836583252,7.944435199
1.345146792,-0.399219818,3.915557556,6.31851059,7.444094539
1.355122792,-0.675545197,3.872746582,6.318360901,7.44151946
1.365099791,-0.968486023,3.927233276,6.617588654,7.755875577
1.375076792,-1.215173035,4.057462463,6.908733215,8.103717776
1.385053792,-1.405726776,4.167932739,7.100334778,8.352393971
1.395030792,-1.50003067,4.237837372,7.147187347,8.44343796
1.405006791,-1.459465027,4.216731262,7.207661591,8.477101292
1.414983792,-1.269959106,4.120182037,7.290439453,8.469899856
1.424960792,-0.990041199,3.944896545,7.349865875,8.400173731
1.434937791,-0.729433136,3.795956268,7.419022064,8.365598907
1.444914792,-0.5640271,3.754941559,7.526348877,8.429925272
1.454891792,-0.525856476,3.791914673,7.634274445,8.540333027
1.464868792,-0.650397491,4.001179504,7.727380829,8.726102727
1.474844791,-0.942739563,4.485422516,7.840844879,9.082214567
1.484821792,-1.332229614,5.273982697,7.932604065,9.618520493
1.494798792,-1.680854645,6.117478638,8.180638275,10.3523746
1.504775791,-1.772464142,6.370602264,8.753347321,10.97029132
1.514752792,-1.48955246,5.665867767,8.913214874,10.66612505
1.524728792,-1.016236725,4.768633575,8.277337189,9.60660784
1.534705792,-0.504750366,4.701273651,7.599247284,8.950156767
1.544682791,-0.149239655,5.204377441,7.443121948,9.083384907
1.554659792,-0.106728058,5.592669983,7.482789459,9.342456128
1.564636792,-0.270936584,5.651647339,7.342680817,9.269815848
1.574613791,-0.352816315,5.48534317,7.197632446,9.05645526
1.584589791,-0.383352814,5.29224472,7.087760925,8.853878726
1.594566792,-0.353115692,5.309608612,7.020999756,8.809714631
1.604543792,-0.253423004,5.467230835,7.094347229,8.960167344
1.614520791,-0.134869537,5.624104614,7.203769684,9.140188191
1.624497792,0.001496887,5.687722321,7.291187897,9.247248693
1.634474792,0.084424438,5.700146484,7.419920197,9.357030146
1.644450792,0.174986115,5.725443878,7.552394714,9.478923655
1.654427791,0.349074097,5.806874542,7.553442535,9.533946654
1.664404792,0.501307526,5.903872833,7.444469147,9.514575374
1.674381792,0.624950409,6.022725677,7.393874359,9.556838684
1.684358791,0.616567841,6.194268951,7.40435257,9.673342789
1.694335792,0.471669159,6.483766937,7.553442535,9.965751333
1.704311792,0.227975922,6.868317261,7.905211029,10.47464159
1.714288792,-0.054486694,7.277266846,8.409063263,11.12087796
1.724265791,-0.288300476,7.607779541,8.825048218,11.65516635
1.734242792,-0.467178497,7.785010986,9.087751923,11.97547021
1.744219792,-0.496667175,7.8127034,9.196725311,12.07744878
1.754196791,-0.416434021,7.688761139,9.115294647,11.93226976
1.764172792,-0.324375458,7.613018646,9.024433594,11.81116734
1.774149792,-0.329315186,7.692952423,9.030870209,11.86788027
1.784126792,-0.441731415,7.882009277,9.200317841,12.12299655
1.794103791,-0.528700562,8.040529633,9.468709717,12.43326605
1.804080792,-0.534837799,8.061635742,9.690099335,12.61641975
1.814057792,-0.515378265,7.996072083,9.939630432,12.76710761
1.824033792,-0.479153595,7.896229706,10.29783554,12.98558618
1.834010791,-0.404458923,7.760162659,10.72384964,13.24328745
1.843987792,-0.239951019,7.539521484,11.07187592,13.39732798
1.853964792,0.071251831,7.103178864,11.24656265,13.30208248
1.863941791,0.502055969,6.482719116,11.26692032,13.00850494
1.873918792,0.983305206,5.840105438,11.23309067,12.69866318
1.883894792,1.491648102,5.284760284,11.11333969,12.39596807
1.893871792,1.985321503,4.804858246,10.89973389,12.07610711
1.903848791,2.43498642,4.346960449,10.47342041,11.59817913
1.913825792,2.780617676,3.944148102,9.711953888,10.84482306
1.923802792,3.010539551,3.603606262,8.813372498,9.986233587
1.933779791,3.101400604,3.264261932,7.896678772,9.090194019
1.943755792,3.007246399,3.040926361,7.001689911,8.204536894
1.953732792,2.736459503,3.020419006,6.268813934,7.477243458
1.963709792,2.330354004,3.14989975,5.813161469,7.010368355
1.973686791,1.963766327,3.326233063,5.501359863,6.721991142
1.983663792,1.597028961,3.582949219,5.145699463,6.4704134
1.993640792,1.115929413,3.969595184,4.87341568,6.383820547
2.003616792,0.611777802,4.379442902,5.020260315,6.690052753
2.013593792,0.181273041,4.921914825,5.428461456,7.329822593
2.023570792,-0.228724365,5.465584259,6.067781982,8.169633059
2.033547792,-0.433498535,5.890999603,6.686595154,8.922015022
2.043524791,-0.491577759,6.221661987,7.132517853,9.477528027
2.053501792,-0.300425262,6.336622925,7.471862183,9.80162078
2.063477792,0.02694397,6.168223114,7.633376312,9.814078474
2.073454792,0.379909973,5.89489151,7.586224365,9.614825928
2.083431792,0.723295898,5.572911072,7.365583191,9.264572873
2.093408792,0.936752014,5.273234253,7.040159912,8.845810048
2.103385792,0.98285614,5.081483002,6.719526672,8.481716477
2.113362791,0.853674774,4.982688446,6.512806549,8.244549346
2.123338792,0.650696869,4.940176849,6.379882965,8.095162776
2.133315792,0.434546356,4.925058289,6.350993042,8.048611203
2.143292792,0.288599854,4.939727783,6.308331757,8.017434128
2.153269792,0.224533081,4.97640152,6.133495331,7.901566437
2.163246792,0.196840668,4.988675995,6.03529953,7.832654393
2.173223834,0.213306427,4.965474243,6.041436768,7.82306796
2.183199833,0.22812561,4.994364166,6.086642761,7.876733766
2.193176833,0.272433472,5.143154755,6.202052765,8.061744186
2.203153833,0.296683044,5.329517212,6.371949463,8.312250868
2.213130833,0.289947052,5.509293365,6.542444916,8.558035298
2.223107833,0.279169464,5.657634888,6.714437256,8.784670499
2.233083833,0.347876587,5.7649617,6.888525238,8.989303726
2.243060833,0.428858185,5.872737579,7.092850342,9.218540665
2.253037833,0.494122467,5.986501007,7.324418793,9.472563643
2.263014833,0.513432312,6.134243774,7.496261444,9.699819331
2.272991833,0.480650482,6.260131989,7.644902344,9.892664416
2.282968833,0.385298767,6.346652069,7.795489197,10.05972661
2.292944833,0.224084015,6.46236145,7.91449173,10.22015208
2.302921833,0.017812958,6.610553284,8.062234497,10.42589838
2.312898833,-0.269589386,6.746470642,8.359516296,10.74565295
2.322875833,-0.549806671,6.808292084,8.752598877,11.10239234
2.332852833,-0.742905121,6.839277649,9.095535736,11.40422716
2.342829833,-0.888402557,6.797364807,9.299711151,11.55327031
2.352805833,-0.998274078,6.732250214,9.367819519,11.57910992
2.362782833,-0.99228653,6.631360016,9.323062592,11.48386104
2.372759833,-0.929117889,6.501130829,9.180558929,11.28763148
2.382736833,-0.877924347,6.434070282,9.021439819,11.11550215
2.392713833,-0.928369446,6.415658569,8.96755188,11.06523978
2.402690833,-1.062041473,6.543941803,8.928782501,11.1208931
2.412666833,-1.23328537,6.742728424,8.871152344,11.21083063
2.422643833,-1.379980316,6.948550415,8.816665649,11.31018531
2.432620833,-1.427581329,7.22412735,8.808283081,11.48093442
2.442597833,-1.455273743,7.405400391,8.919950867,11.68431855
2.452574833,-1.48595993,7.342531128,9.20510788,11.86822865
2.462551833,-1.49883316,7.122788086,9.549242249,12.00702455
2.472527833,-1.426533508,6.976242828,10.18990997,12.4313003
2.482504833,-1.297501831,6.906487885,10.96544724,13.02398245
2.492481833,-0.919837189,6.682254181,11.34640503,13.19998214
2.502458833,-0.357306976,6.158493347,11.32829269,12.89902802
2.512435833,0.171393585,5.518125,11.06843307,12.36888394
2.522411834,0.502804413,4.905598755,10.484198,11.58603121
2.532388833,0.653391266,4.368815002,9.744885406,10.69935775
2.542365833,0.580043793,4.026925964,8.985514526,9.863673496
2.552342833,0.240400085,3.931424561,8.325387268,9.210101218
2.562319833,-0.175135803,3.994742889,7.948770447,8.89784215
2.572296833,-0.579295349,4.123774567,7.929011536,8.956021645
2.582272833,-0.872086487,4.237537994,7.992180176,9.088025476
2.592249834,-1.03554657,4.305346985,7.98349823,9.129327103
2.602226833,-1.048270111,4.24621994,7.821085968,8.960950827
2.612203833,-0.961750031,4.058061218,7.592960358,8.662901994
2.622180833,-0.864003296,3.789968719,7.431595917,8.386833876
2.632157833,-0.747844849,3.541485443,7.469766541,8.300530298
2.642133833,-0.75592804,3.439248047,7.470215607,8.258569824
2.652110833,-0.811013489,3.438200226,7.449558563,8.244688379
2.662087834,-0.803379364,3.550766144,7.51661911,8.351821445
2.672064833,-0.792452087,3.644321594,7.321125641,8.216321613
2.682041833,-0.929866333,3.514541473,6.937323761,7.832184506
2.692018833,-1.027762756,3.315754852,6.591393127,7.449630184
2.701994834,-1.330283661,3.007695465,6.350543976,7.151593908
2.711971833,-3.153192902,1.922302551,4.903054047,6.13822544
2.721948833,-5.779481506,2.430196381,5.503605194,8.342537448
2.731925834,-4.640500031,4.249213715,7.208410034,9.568240849
2.741902833,-2.748733978,4.184697876,6.838379517,8.475297588
2.751879833,-2.001338196,3.250939636,6.91172699,7.89594409
2.761855833,-1.733545074,2.84333725,6.748715973,7.525617086
2.771832834,-1.677411804,2.947969666,6.467301178,7.302754277
2.781809833,-2.021246796,3.04227356,5.659131775,6.735476187
2.791786833,-1.982627106,2.046993256,5.316643982,6.032221387
2.801763834,-1.373094635,2.493065643,6.229894867,6.849259466
2.811740833,-2.007176056,4.140539703,8.306825867,9.496113981
2.821716833,-2.969524841,4.315825195,8.289162598,9.80584731
2.831693833,-3.312910767,4.133055267,7.174131317,8.917717407
2.841670834,-3.260070648,3.98770752,6.886279907,8.599460614
2.851647833,-2.989433441,2.243684235,6.515351257,7.511366936
2.861624833,-1.378633118,1.316512299,5.446424103,5.770387284
2.871600833,-0.260608063,1.892813873,4.854105835,5.216608513
2.881577834,-0.298479309,3.353027344,7.34223175,8.077143638
2.891554833,-3.041824493,6.846462708,14.43208832,16.26074786
2.901531833,-3.047063599,6.868766327,10.0581839,12.5551428
2.911508834,-1.720222778,5.025948486,6.205794983,8.168917674
2.921485833,0.008681946,4.939727783,7.021598511,8.585093569
2.931461833,1.037941589,5.730383606,9.030870209,10.74575431
2.941438833,0.655337219,6.444548492,10.23287064,12.11087584
2.951415834,-0.133222961,6.593937836,10.28002258,12.21378847
2.961392833,-0.282761993,6.271208954,10.96424973,12.63419123
2.971369833,-0.956959991,4.659959564,12.15023346,13.04833969
2.981346834,-0.990041199,3.515289917,14.36173462,14.8188011
2.991322833,-1.345701599,3.867357788,15.04491394,15.59220333
3.001299833,-1.876198425,4.429438934,14.201418,14.99400957
3.011276833,-1.851350098,4.185895386,14.59075836,15.2918098
3.021253834,-1.486259308,3.688330078,14.76095444,15.28720123
3.031230833,-1.097218323,3.410657501,14.98369125,15.40608569
3.041207833,-0.811612244,3.332819366,15.06048157,15.4461809
3.051183833,-0.547112274,3.25288559,15.0455127,15.40285846
3.061160833,-0.317789154,3.058439941,14.77263016,15.089256
3.071137833,-0.11930191,2.722538452,14.36128555,14.61755695
3.081114833,0.235909424,2.082469482,14.36787186,14.51991991
3.091091834,0.992136841,1.58310791,13.88811951,14.01322338
3.101068833,1.071920929,1.517693939,12.21834183,12.35881412
3.111044833,1.298998718,0.88810318,12.21579712,12.31672944
3.121021833,1.676663361,0.691262512,11.09073669,11.23803739
3.130998833,1.873504028,0.568368073,10.1231488,10.31073234
3.140975833,2.105820923,0.49142807,9.290729828,9.539058866
3.150952833,2.195484467,0.448916473,8.342152405,8.637892381
3.160928833,2.233355713,0.451461182,7.493716736,7.832463562
3.170906042,2.22901474,0.468675385,6.764582977,7.137768992
3.180883042,2.233804779,0.610879669,6.114634552,6.538487093
3.190860042,2.107467499,1.095721436,5.607489166,6.089824256
3.200837042,1.719773712,2.039209442,5.154680786,5.804027117
3.210814042,0.99692688,3.277584229,5.045557709,6.098694464
3.220790042,0.142054596,4.439468079,5.369334412,6.968415053
3.230767041,-0.44233017,5.182672577,5.615422668,7.654327061
3.240744042,-0.438887329,5.089566193,5.901777191,7.805592875
3.250721042,-0.443827057,4.71773941,5.971382446,7.623087034
3.260698042,-0.082628174,4.771178284,5.819448395,7.525752404
3.270675042,0.161065063,4.405638428,6.12301712,7.544993742
3.280651042,-0.050145721,4.019740906,6.134094086,7.334026302
3.290628042,-0.13576767,4.029320984,6.112838287,7.322612401
3.300605041,-0.113014984,4.00402359,6.359974365,7.516265777
3.310582042,-0.247435455,3.945944366,6.265969849,7.40905388
3.320559042,-0.415835266,4.11988266,6.077062683,7.353709469
3.330536042,-0.525706787,4.321812744,6.201903076,7.577468891
3.340512041,-0.637075195,4.391417999,6.188281403,7.614804237
3.350489042,-0.670755157,4.305346985,6.205046539,7.582118945
3.360466042,-0.677640839,4.243226166,6.259233856,7.592244323
3.370443041,-0.554447021,4.297114105,6.275100861,7.625581417
3.380420042,-0.447269897,4.461322632,6.343957672,7.768477903
3.390397042,-0.37796402,4.621639252,6.444548492,7.93943395
3.400373042,-0.470771027,4.780009918,6.6753685,8.223786524
3.410350041,-0.61552002,5.027595062,6.853049011,8.521728566
3.420327042,-0.720601501,5.41633667,6.966063995,8.853361906
3.430304042,-0.829275513,5.847739563,7.095095673,9.23169207
3.440281041,-0.903371429,6.167324982,7.275171204,9.580192765
3.450257041,-0.845292206,6.339766388,7.575297089,9.914246454
3.460234042,-0.695453796,6.44020752,7.894134064,10.21162482
3.470211042,-0.511186981,6.454278259,8.191864929,10.44153585
3.480188041,-0.413140869,6.293512573,8.470735016,10.56088716
3.490165042,-0.421074371,6.066434784,8.657247162,10.57954928
3.500142042,-0.497116241,5.973029022,8.709488525,10.57257729
3.510118042,-0.675245819,5.854475555,9.007967834,10.76449374
3.520095041,-0.946481781,5.657934265,9.601333923,11.18452775
3.530072042,-1.182241516,5.510041809,10.03767654,11.51143806
3.540049042,-1.263372803,5.280269623,10.30517029,11.64791367
3.550026041,-1.26367218,4.896916809,10.48958679,11.64508878
3.560003042,-1.219963074,4.541855164,10.56158707,11.5613096
3.569979042,-1.167122955,4.356091461,10.62999481,11.54705584
3.579956042,-1.186283112,4.321812744,10.59781174,11.50647412
3.589933041,-1.237626343,4.374652863,10.58868073,11.52343118
3.599910042,-1.284179535,4.495152283,10.73357941,11.70748641
3.609887042,-1.290167084,4.725672913,10.88970474,11.94077824
3.619864041,-1.206940155,5.075196075,10.99074463,12.16596841
3.629840042,-1.212328949,5.414540405,11.17531082,12.47696122
3.639817042,-1.294807434,5.582940216,11.48202301,12.83287186
3.649794042,-1.343007202,5.455255737,11.87690186,13.13865599
3.659771041,-1.319356384,5.06995697,12.22028778,13.29588652
3.669748042,-1.130149841,4.517306213,12.3819516,13.22860611
3.679724042,-0.795296173,3.931424561,12.35096603,12.9859523
3.689701042,-0.310304718,3.586392059,12.07119781,12.5965199
3.699678042,0.35341507,3.452270966,11.68799469,12.19230482
3.709655042,0.894090729,3.503913574,11.20569763,11.77473855
3.719632042,1.001417542,3.555107117,10.43165726,11.06621421
3.729609041,0.645158386,3.567231903,9.666298828,10.32369633
3.739585042,0.201331329,3.748654633,8.999585266,9.751178432
3.749562042,-0.126187592,4.111350403,8.504564667,9.447049572
3.759539042,-0.443976746,4.438569946,8.022866364,9.179564434
3.769516042,-0.738414459,4.579427032,7.599247284,8.903087506
3.779493042,-0.979712677,4.647984467,7.265291748,8.680326072
3.789470042,-1.097068634,4.692292328,6.993307343,8.492791912
3.799446042,-1.071172485,4.610562286,6.854994965,8.330405216
3.809423042,-0.921184387,4.37959259,6.808591461,8.147780656
3.819400042,-0.721649323,4.154161377,6.828500061,8.025350308
3.829377042,-0.590372314,4.065845032,6.806944885,7.950731662
3.839354041,-0.661474457,3.988306274,6.812782745,7.922003795
3.849330042,-0.811612244,3.865561523,6.780300293,7.846894442
3.859307042,-0.870439911,3.72320755,6.734794922,7.744507908
3.869284042,-0.891096954,3.629053345,6.673422546,7.648441047
3.879261042,-0.917891235,3.590583344,6.649023285,7.612116901
3.889238042,-0.952768707,3.552562408,6.657705231,7.606149276
3.899215042,-1.004111938,3.481909332,6.679110718,7.598845528
3.909191042,-0.957558746,3.387904816,6.73150177,7.596573825
3.919168042,-0.874182129,3.327131195,6.751859436,7.577704285
3.929145042,-0.783321075,3.292852478,6.749165039,7.550344235
3.939122042,-0.736917572,3.295696564,6.7934729,7.58656295
3.949099042,-0.764609985,3.358416138,6.871161346,7.686120324
3.959076042,-0.865949249,3.484603729,7.025041351,7.889457348
3.969052042,-0.969533844,3.677253113,7.182364197,8.127025396
3.979029042,-0.999172211,3.911515961,7.350764008,8.3864196
3.989006042,-0.915795593,4.104015656,7.553741913,8.645267084
3.998983042,-0.816551971,4.233646088,7.75178009,8.870209179
4.008960042,-0.708925781,4.321812744,7.918982391,9.049360379
4.018937042,-0.454754333,4.382736053,8.064629517,9.189854518
4.028913042,-0.166004791,4.411775665,8.191266174,9.305276119
4.038890042,0.07020401,4.416416016,8.274343414,9.379467893
4.048867042,0.245489502,4.385879517,8.305778046,9.395858299
4.058844042,0.404608612,4.365970917,8.356672211,9.437127773
4.068821042,0.445024567,4.394262085,8.475824432,9.557572178
4.078797041,0.428858185,4.433330841,8.558452606,9.64808026
4.088774042,0.353714447,4.410278778,8.630153503,9.69820717
4.098751042,0.208516388,4.42644516,8.691076813,9.755599008
4.108728042,-0.171543274,4.670737152,8.845256195,10.00418761
4.118705042,-0.827778625,5.165458374,9.042695618,10.44689053
4.128682042,-1.361269226,5.643264771,9.309740295,10.9713607
4.138658042,-1.45093277,5.853427734,9.65552124,11.38406397
4.148635041,-1.078207855,5.696254578,10.05369324,11.60545545
4.158612042,-0.497864685,5.37068161,10.42686722,11.73932069
4.168589042,-0.088316345,5.200036469,10.898237,12.07558482
4.178565792,0.171094208,5.155279541,11.37394775,12.4889098
4.188542792,0.396076355,5.071304169,11.87286026,12.91664868
4.198518792,0.649199982,4.888683929,12.24094482,13.1970232
4.208495792,0.887654114,4.637655945,12.51472549,13.37587891
4.218472792,1.028960266,4.41476944,12.73027725,13.51328633
4.228449792,1.117575989,4.126169586,12.97905991,13.66492765
4.238426792,1.222358093,3.74311615,13.25328964,13.825873
4.248402792,1.409319305,3.138822784,13.3878598,13.82292225
4.258379792,1.769769745,2.299368439,13.37348969,13.68464126
4.268356792,2.164199524,1.540147247,13.15659073,13.42205993
4.278333792,2.364183655,0.993034973,12.75422745,13.00945043
4.288310792,2.420316925,0.616567841,12.22088654,12.47349821
4.298287792,2.379152527,0.316292267,11.64473465,11.88950178
4.308263792,2.346819763,0.165705414,10.9724826,11.22187131
4.318240792,2.284399567,0.157622223,10.31145721,10.56264531
4.328217792,2.170785828,0.184566193,9.677375793,9.919575497
4.338194792,2.059567108,0.214204559,9.062005463,9.295571164
4.348171792,1.977088623,0.335602112,8.581205292,8.812411274
4.358148792,1.848056946,0.585731964,8.173902283,8.400659197
4.368124792,1.584455109,0.933309174,7.882458344,8.094115983
4.378101792,1.21217926,1.329984283,7.643704834,7.852672178
4.388078792,0.827778625,1.762884064,7.410340118,7.6619918
4.398055792,0.533041534,2.189945984,7.246131592,7.588571653
4.408032792,0.366437988,2.60458374,7.087311859,7.559637733
4.418008792,0.223784637,2.950514374,6.937174072,7.541882971
4.427985792,0.088316345,3.194057922,6.785090332,7.499817105
4.437962792,-0.016316071,3.331322479,6.657106476,7.444128042
4.447939792,-0.11466156,3.396586761,6.519243164,7.351903178
4.457916792,-0.233514404,3.535647583,6.364315338,7.284218732
4.467893792,-0.386795654,3.666475525,6.225104828,7.234955685
4.477869791,-0.410147095,3.790717163,6.14651825,7.233079831
4.487846792,-0.328117676,3.91974884,6.09263031,7.252050488
4.497823792,-0.18950592,3.976630554,6.176605682,7.348466562
4.507800792,-0.09834549,3.927233276,6.270011444,7.399045651
4.517777792,-0.065264282,3.859723663,6.375991058,7.453521863
4.527753792,-0.057480469,3.775299225,6.543642426,7.554829213
4.537730792,-0.082328796,3.683839417,6.752009125,7.692013917
4.547707791,-0.182470551,3.601959686,7.012018433,7.885164017
4.557684792,-0.327818298,3.581152954,7.278015289,8.117981761
4.567661792,-0.403560791,3.584146729,7.519762573,8.340011885
4.577638792,-0.403261414,3.586841125,7.709867249,8.512937332
4.587614791,-0.403411102,3.576662292,8.008645935,8.780299732
4.597591792,-0.377814331,3.543880463,8.293204193,9.026575663
4.607568792,-0.309406586,3.505260773,8.553961945,9.249478389
4.617545791,-0.276924133,3.486998749,8.871002655,9.535750382
4.627522792,-0.233813782,3.519331512,9.214837646,9.866792591
4.637499792,-0.172740784,3.623664551,9.526489563,10.19386029
4.647475792,-0.056582336,3.737727356,9.791588287,10.48088777
4.657452791,0.017064514,3.776945801,10.08168503,10.76596414
4.667429792,0.051642609,3.816014557,10.36414764,11.04446424
4.677406792,0.096998291,3.847149811,10.66532135,11.33838833
4.687383791,0.128432922,3.8074823,10.90661957,11.55282506
4.697359791,0.071251831,3.747457123,11.02981339,11.64926157
4.707336792,-0.157173157,3.66707428,11.10585526,11.69667295
4.717313792,-0.446371765,3.697610779,11.10884903,11.71657373
4.727290791,-0.871338043,3.892954559,11.12666199,11.82019171
4.737267792,-1.57727005,4.169579315,11.29401398,12.14199012
4.747244792,-2.255060577,4.525539093,11.55222702,12.61030338
4.757220792,-2.469265137,4.759053497,11.9586319,13.10552316
4.767197791,-2.143392792,4.431235199,12.53553223,13.46735112
4.777174792,-1.658551025,3.702400818,13.08893143,13.70323645
4.787151792,-1.45557312,3.162473602,13.58260483,14.02166489
4.797128791,-1.508712616,2.890040131,13.97074768,14.34609133
4.807104792,-1.448986816,2.448757782,14.0394548,14.32488285
4.817081792,-1.088835754,1.613345032,13.62855927,13.76684688
4.827058792,-0.716709595,0.64470932,12.75826904,12.79463762
4.837035791,-0.753083954,-0.075443115,11.7462236,11.7705818
4.847012792,-1.236279144,-0.418080597,10.78462326,10.86329952
4.856989792,-1.81482605,-0.36509079,9.899813232,10.07140442
4.866965792,-2.147584076,0.128881989,9.258397064,9.505085172
4.876942792,-2.334994354,0.871338043,8.776399384,9.123410259
4.886919792,-2.442919922,1.560205536,8.384364624,8.871283403
4.896896792,-2.43962677,2.086062012,8.034392395,8.651872321
4.906873791,-2.282752991,2.458188171,7.77168869,8.464797422
4.916849792,-2.029030609,2.661315765,7.570656738,8.277343189
4.926826792,-1.637444916,2.739453278,7.462282104,8.116124957
4.936803792,-1.249900818,2.754272461,7.509134674,8.095392047
4.946780792,-0.936302948,2.815046082,7.570656738,8.13117403
4.956757792,-0.735869751,2.91818161,7.598199463,8.172510219
4.966734792,-0.626596985,3.013982391,7.576644287,8.178157023
4.976710792,-0.568517761,3.063978424,7.525301056,8.145018859
4.986687792,-0.504750366,3.027903442,7.438631287,8.047124182
4.996664792,-0.464184723,2.917882233,7.346722412,7.918575275
5.006641792,-0.456550598,2.749183044,7.328759766,7.840737565
5.016618792,-0.479003906,2.650538177,7.33414856,7.813100055
5.026594792,-0.511935425,2.567011871,7.344926147,7.79740777
5.036571792,-0.592767334,2.500101013,7.35166214,7.78773487
5.046548792,-0.705782318,2.433938599,7.348368988,7.773076133
5.056525792,-0.783770142,2.334245911,7.347321167,7.748943666
5.066502792,-0.836310883,2.237846375,7.3575,7.735643382
5.076479792,-0.874631195,2.156864777,7.386389923,7.744404528
5.086455792,-0.914598083,2.104773102,7.470814362,7.81534559
5.096432792,-0.994382172,2.104922791,7.597750397,7.946402139
5.106409792,-1.065634003,2.199226685,7.822433167,8.195281233
5.116386792,-1.043480072,2.25356369,8.050708466,8.425040461
5.126363792,-1.022074585,2.309098206,8.327183533,8.701641027
5.136339792,-0.99692688,2.38933136,8.711584167,9.088149771
5.146316792,-0.995579681,2.4325914,9.168883209,9.538191607
5.156293792,-0.954115906,2.446063385,9.603728943,9.956162557
5.166270792,-0.694705353,2.392923889,10.22089554,10.52023792
5.176248041,-0.196391602,2.308050385,11.17815491,11.41563898
5.186225042,0.391436005,2.360740814,11.92031158,12.15813093
5.196201042,0.64470932,2.622396698,12.07374252,12.37206018
5.206178042,0.284558258,2.685265961,11.54923325,11.86070888
5.216155041,-0.069156189,2.641257477,11.60850998,11.90539909
5.226132042,-0.258961487,2.468666382,11.68230652,11.94310095
5.236109042,-0.364492035,2.253713379,11.69637726,11.91710197
5.246085042,-0.357306976,2.06989563,11.95488968,12.13801975
5.256062042,-0.248932343,1.949096832,12.29857498,12.45455308
5.266039042,0.008083191,1.900447998,12.58717484,12.72983654
5.276016042,0.348175964,1.786983948,12.73072632,12.86024614
5.285993041,0.696651306,1.654659119,12.49721191,12.6255109
5.295969042,0.91848999,1.574725342,12.30516129,12.43946856
5.305946042,1.030157776,1.594035187,12.49915787,12.64243333
5.315923042,1.163979492,1.815574493,13.03369629,13.21091965
5.325900041,1.290017395,2.05118454,13.42647949,13.64338134
5.335877042,1.362167358,2.139201508,13.62062576,13.85471505
5.345854042,1.402433624,1.985171814,13.7688176,13.98170466
5.355830042,1.428329773,1.458566895,13.73304199,13.88394705
5.365807042,1.54808075,0.597707062,13.43111984,13.5332475
5.375784042,1.623074799,-0.390687561,13.08608734,13.19214503
5.385761042,1.580263824,-1.214125214,12.62295044,12.77928838
5.395738041,1.587897949,-1.678459625,12.02584213,12.24579624
5.405714042,1.776954803,-1.706750793,11.4197525,11.68252173
5.415691042,2.001637573,-1.653162231,10.56398209,10.87829104
5.425668042,2.261497192,-1.635498962,9.727072449,10.11954371
5.435645042,2.498005371,-1.625320129,9.071735229,9.548721193
5.445622042,2.624043274,-1.706601105,8.048912201,8.636149492
5.455599042,2.640808411,-2.026186523,7.247179413,7.975017889
5.465575042,2.794089661,-1.757794647,6.794371033,7.553823984
5.475552042,2.947370911,-0.799637146,6.131998444,6.850388293
5.485529042,2.526296539,0.006137238,5.751639404,6.282003479
5.495506042,1.689835968,0.619262238,5.627996521,5.908754197
5.505483042,0.756227417,1.238374786,5.896987152,6.072883128
5.515459042,-0.415984955,1.818418579,6.454877014,6.719012344
5.525436042,-1.429676971,2.271226959,6.970105591,7.468923623
5.535413042,-1.862576752,2.554587708,7.205565948,7.868627018
5.545390042,-1.787283325,2.570005646,7.446864166,8.078062677
5.555367042,-1.357227631,2.85261795,7.49207016,8.130843209
5.565344042,-0.834813995,2.578088837,7.74594223,8.206282806
5.575320042,-0.425115967,1.857038269,7.747738495,7.978519067
5.585297042,-0.117655334,1.123563538,7.569758606,7.653592826
5.595274042,0.148491211,0.533490601,7.236850891,7.258007487
5.605251042,0.331710205,0.039966888,7.110962677,7.118807429
5.615228042,0.389490051,-0.069605255,7.140301666,7.151255504
5.625204042,0.388292542,0.101488953,7.455246735,7.466041453
5.635181041,0.362246704,0.474662933,7.848479004,7.871159397
5.645158042,0.315992889,0.866548004,8.139473877,8.191568345
5.655135042,0.315244446,1.090033264,8.165819092,8.244280018
5.665112042,0.318537598,1.09167984,8.093220062,8.172725497
5.675089042,0.387693787,1.105600891,8.009843445,8.095075776
5.685065042,0.473016357,1.077160034,7.976612549,8.062900593
5.695042042,0.545016632,0.991388397,8.133037262,8.211345151
5.705019041,0.596958618,1.031355286,8.258626099,8.344157139
5.714996042,0.521216125,1.101559296,8.456813965,8.544167693
5.724973042,0.315394135,1.194515991,8.760532379,8.847218177
5.734949042,-0.018262024,1.384470978,9.016051025,9.121747063
5.744926041,-0.263152771,1.618733826,9.187893677,9.333109814
5.754903042,-0.087418213,1.891167297,8.986412659,9.183668557
5.764880042,0.221988373,1.75749527,8.720864868,8.898963564
5.774857041,0.50669632,1.375339966,8.798403625,8.919652882
5.784834042,0.749042358,1.168021088,9.379195862,9.481279066
5.794810042,0.831371155,1.25079895,10.1815274,10.29170425
5.804787042,0.668360138,1.263971558,10.76246933,10.85702885
5.814764041,0.335602112,1.231489105,11.18608841,11.25867524
5.824741042,0.015118561,1.392254791,11.67003204,11.75279753
5.834718042,-0.056732025,1.714384918,12.07000031,12.19127727
5.844694042,0.153880005,2.06046524,12.32821335,12.50016162
5.854671041,0.371527405,2.265389099,12.6486969,12.85533172
5.864648042,0.451910248,2.30041626,13.08743454,13.29575423
5.874625042,0.531993713,2.291584625,13.36615494,13.57160548
5.884602041,0.633183289,2.246228943,13.65804794,13.85600011
5.894578042,0.688418427,2.132465515,13.86117554,14.04113658
5.904555042,0.590222626,1.913770294,14.02074371,14.16305524
5.914532042,0.363593903,1.623972931,14.17177963,14.26915648
5.924509041,0.089513855,1.205293579,14.43478271,14.48529245
5.934486042,0.000898132,0.720302124,14.75915817,14.77672447
5.944463042,0.258362732,0.268691254,14.87501724,14.87968697
5.954439042,0.688418427,-0.091609497,14.31473236,14.33156917
5.964416042,1.25903183,-0.375868378,13.26242065,13.32734932
5.974393042,1.792672119,-0.830173645,12.11909821,12.2790636
5.984370042,2.780767365,-0.693358154,10.87608307,11.24733727
5.994347041,3.448528748,-0.313747559,10.21850052,10.78927898
6.004323042,3.257975006,-0.0490979,9.025481415,9.595630595
6.014300042,2.608325958,0.005987549,8.479267273,8.871379467
6.024277042,1.439406738,-0.058228912,8.119116211,8.245928111
6.034254042,0.174686737,-1.733395386,5.286855927,5.566508835
6.044231042,-0.866398315,-0.021255798,9.015601959,9.057161616
6.054208042,-1.174457703,1.168470154,10.85407883,10.979786
6.064184042,-1.802850952,1.286125488,7.399263153,7.723566892
6.074161042,-1.82066391,0.881217499,7.229815521,7.507435902
6.084138042,-1.759590912,0.405506744,7.608677673,7.820010987
6.094115042,-1.41231308,0.502055969,7.305258636,7.457445419
6.104092041,-0.896036682,0.783321075,7.194488983,7.292266134
6.114068042,-0.602347412,0.785566406,7.407346344,7.473199907
6.124045042,-0.415535889,0.781375122,7.463479614,7.515766435
6.134022042,-0.18726059,0.879421234,7.426805878,7.481035609
6.143999042,0.043559418,0.882415009,7.496411133,7.548293419
6.153976042,0.296533356,0.877325592,7.600145416,7.656359616
6.163952042,0.539029083,0.925375671,7.578290863,7.6535851
6.173929083,0.706081696,0.873433685,7.422315216,7.506810303
6.183906083,0.808917847,0.839604034,7.153773651,7.24815566
6.193883083,0.920735321,1.040037231,6.951244812,7.088669509
6.203860083,1.118923187,1.368005219,7.006180573,7.225648316
6.213837083,1.022373962,1.356628876,7.214247894,7.411549305
6.223813083,0.743503876,1.108295288,7.484735413,7.60278769
6.233790083,0.540226593,0.974772949,7.664661255,7.745260436
6.243767083,0.741557922,0.895737305,7.8817099,7.967032347
6.253744083,0.559686127,1.170416107,8.011939087,8.116297823
6.263721083,0.316741333,1.148112488,8.291407928,8.376510777
6.273697083,-0.111667786,0.995879059,8.936716003,8.992726935
6.283674083,-0.298479309,0.95007431,9.489965515,9.542074018
6.293651083,-0.132773895,1.04138443,9.87780899,9.93343953
6.303628083,0.396974487,1.183738403,10.24903702,10.32480436
6.313605083,0.927171936,1.279688873,10.6287973,10.7456309
6.323581083,1.261726227,1.011596375,10.89120163,11.01061094
6.333558084,1.549278259,0.667312317,10.85647385,10.98674625
6.343535083,1.74102951,0.267044678,10.74899734,10.89235698
6.353512083,1.999841309,0.153730316,10.6129303,10.80080033
6.363489083,1.986968079,0.087118835,10.68388275,10.86742759
6.373466083,1.796264648,-0.027692413,11.16153946,11.30518893
6.383442083,1.599873047,0.094303894,11.71269333,11.82183032
6.393419083,1.471589813,0.105680237,12.11595474,12.20545387
6.403396084,1.459015961,0.055384827,12.19588852,12.28297569
6.413373083,1.629810791,0.109123077,12.10532684,12.21503701
6.423350083,1.800605621,0.037122803,12.07598785,12.20954714
6.433326083,1.967059479,-0.051043854,12.13257019,12.29110198
6.443303084,2.011067963,0.142653351,12.44092896,12.60323203
6.453280083,1.733844452,0.224533081,12.38554413,12.50833063
6.463257083,1.520987091,-0.058079224,12.66186951,12.75302765
6.473234084,1.520987091,0.183069305,12.73372009,12.82554262
6.483210083,1.269060974,0.156724091,12.9114006,12.97456526
6.493187083,0.940344543,-0.158370667,13.19715637,13.23156323
6.503164083,0.632734222,-0.583187256,13.34235443,13.37007411
6.513141084,0.304466858,-1.416055298,13.43755646,13.51539257
6.523118083,0.02694397,-2.492167511,13.38456665,13.61463365
6.533095083,0.08547226,-3.64132782,12.85616547,13.36216915
6.543071083,0.483344879,-4.56805069,11.9319873,12.78565721
6.553048083,1.091380463,-5.077291718,11.01843704,12.18096701
6.563025083,1.616189117,-5.245092773,10.12689102,11.5185497
6.573002083,1.872905273,-5.039121094,9.474697266,10.89359462
6.582979084,1.797761536,-5.19629425,8.586893463,10.19647781
6.592955083,1.778601379,-4.666096802,7.748486938,9.218184857
6.602932083,1.672322388,-4.113745422,7.351063385,8.588230112
6.612909083,1.474882965,-3.671564941,6.794371033,7.862515285
6.622886084,1.257684631,-3.047662354,6.334676971,7.141298816
6.632863083,0.842597809,-2.282004547,6.147566071,6.611360254
6.642839083,0.111069031,-1.461111603,6.164331207,6.336099958
6.652816083,-0.764759674,-0.678538971,6.336173859,6.418128361
6.662793083,-1.653910675,-0.095501404,6.559958496,6.765914314
6.672770083,-2.388882294,0.373173981,6.776258698,7.194699394
6.682747083,-2.490371246,0.603844299,6.815028076,7.280878008
6.692724084,-2.142943726,0.547860718,6.755601654,7.108481757
6.702700083,-1.694176941,0.412542114,6.781946869,7.002515965
6.712677083,-1.380579071,0.315543823,6.919061737,7.062505348
6.722654083,-1.22385498,0.214503937,6.927593994,7.038138355
6.732631083,-1.103954315,0.023950195,6.939269714,7.026574764
6.742608083,-1.025966492,-0.075742493,7.137756958,7.211512917
6.752584083,-0.973874817,-0.093854828,7.409142609,7.473462055
6.762561083,-0.88930069,-0.066012726,7.695347443,7.746843593
6.772538083,-0.717158661,-0.037721558,8.001311188,8.033474976
6.782515083,-0.442928925,0.060923309,8.271499329,8.283574037
6.792492083,-0.153131561,0.145647125,8.545429688,8.548042519
6.802468083,0.113613739,0.271385651,8.902437286,8.907297452
6.812445083,0.396974487,0.522114258,9.398655396,9.421513429
6.822422083,0.688268738,0.595461731,9.685908051,9.728571493
6.832399083,0.920585632,0.579445038,9.933343506,9.992724737
6.842376083,1.079704742,0.564925232,10.19260437,10.2651881
6.852352083,1.234333191,0.549207916,10.4589006,10.54579583
6.862329083,1.413360901,0.678988037,10.74750046,10.86127892
6.872306083,1.542093201,0.885558472,10.93086914,11.07457292
6.882283083,1.639390869,1.046473846,11.02891525,11.19909289
6.892260083,1.636696472,1.173409882,11.09373047,11.27503977
6.902237083,1.61828476,1.221459961,11.0787616,11.26276025
6.912213083,1.66034729,1.14781311,11.01469482,11.19811279
6.922190083,1.638792114,1.008153534,10.94059891,11.10849754
6.932167083,1.478625183,0.845441895,10.97098572,11.1024156
6.942144083,1.153351593,0.709674225,11.06244553,11.14502393
6.952121083,0.802181854,0.56866745,11.10959747,11.15302804
6.962097083,0.527353363,0.325123901,11.20644608,11.2235574
6.972074084,0.307310944,-0.010328522,11.32095795,11.32513291
6.982051083,0.08771759,-0.304017792,11.47184418,11.47620713
6.992028083,-0.056282959,-0.590372314,11.56480087,11.57999683
7.002005083,-0.250279541,-0.82957489,11.60925842,11.64155125
7.011981084,-0.669857025,-0.902323608,11.67018173,11.7241647
7.021958083,-1.225950623,-0.82957489,11.72377029,11.81684981
7.031935083,-1.712139587,-0.857416992,11.83678528,11.99066602
7.041912084,-2.051034851,-0.923429718,11.89037384,12.10125847
7.051889083,-2.149380341,-1.125808868,11.90609116,12.1508143
7.061866083,-2.128872986,-1.55391861,11.8935173,12.18205718
7.071842083,-2.163750458,-1.955683136,11.87166275,12.2246836
7.081819084,-2.33200058,-2.2547612,11.95129715,12.38368598
7.091796083,-2.513872375,-2.518812103,12.05832458,12.57247631
7.101773083,-2.540666656,-2.716700592,12.07344315,12.63342703
7.111750084,-2.425705719,-2.902015228,12.00338882,12.58519304
7.121726083,-2.17288147,-3.116219788,11.75565399,12.35425596
7.131703083,-1.78084671,-3.288212128,11.37020554,11.96934952
7.141680083,-1.349294128,-3.29030777,10.85961731,11.42707347
7.151657084,-1.02147583,-3.134182434,10.27837601,10.79405048
7.161634083,-0.97701828,-2.849773865,9.767787781,10.22181265
7.171610083,-1.209784241,-2.500101013,9.239236908,9.647672342
7.181591042,-1.420096893,-2.148781586,8.691974945,9.065559328
7.191568042,-1.558109894,-1.797761536,8.243956604,8.580353924
7.201545042,-1.730401611,-1.500479736,7.849077759,8.176414302
7.211522042,-1.957030334,-1.220711517,7.5260495,7.871564356
7.221498042,-2.131717072,-0.967288513,7.330256653,7.694967663
7.231475042,-2.23021225,-0.762664032,7.203619995,7.579422415
7.241452042,-2.321372681,-0.64351181,7.104526062,7.501811057
7.251429042,-2.310146027,-0.571361847,7.090305634,7.479014842
7.261406042,-2.194586334,-0.468974762,7.202871552,7.544369098
7.271382042,-2.092798004,-0.471968536,7.325017548,7.632721655
7.281359042,-2.022743683,-0.50669632,7.487729187,7.772665022
7.291336042,-1.988464966,-0.407303009,7.679929504,7.943626744
7.301313042,-1.907034302,-0.298778687,7.921078033,8.152884504
7.311290042,-1.799408112,-0.325872345,8.156987457,8.359456126
7.321267042,-1.660496979,-0.450263672,8.337062988,8.512732044
7.331243041,-1.560504913,-0.601149902,8.462951202,8.626592598
7.341220042,-1.521585846,-0.65054718,8.58614502,8.744159274
7.351197042,-1.480720825,-0.659528503,8.724906464,8.874204461
7.361174042,-1.401385803,-0.683179321,8.890761566,9.026419965
7.371151042,-1.300046539,-0.681532745,9.028774567,9.147315347
7.381127042,-1.195414124,-0.68452652,9.102720795,9.206362873
7.391104042,-1.089284821,-0.658181305,9.145232391,9.233364476
7.401081041,-1.004261627,-0.542322235,9.260642395,9.330710176
7.411058042,-0.870739288,-0.293838959,9.429341583,9.474017677
7.421035042,-0.656534729,-0.039218445,9.568701782,9.591278837
7.431011042,-0.534987488,0.148341522,9.685758362,9.70165614
7.440988041,-0.415835266,0.359103241,9.848919067,9.864232403
7.450965042,-0.257314911,0.499211884,9.97151413,9.987317833
7.460942042,-0.113164673,0.476459198,10.04695724,10.0588851
7.470919041,-0.06316864,0.406853943,10.08557693,10.09397754
7.480895041,-0.140707397,0.423170013,10.09680359,10.10664703
7.490872042,-0.111667786,0.397124176,10.09620483,10.10462911
7.500849042,-0.08307724,0.366887054,10.09246262,10.09947076
7.510826041,-0.156125336,0.383502502,10.02989273,10.03843601
7.520803042,-0.24219635,0.381706238,9.957144012,9.967400645
7.530779042,-0.309256897,0.377215576,9.900411987,9.912420942
7.540756042,-0.42361908,0.364641724,9.879455566,9.895254368
7.550733041,-0.584384766,0.350720673,9.991572418,10.01479056
7.560710042,-0.665665741,0.322579193,10.09216324,10.1192355
7.570687042,-0.687370605,0.286055145,10.21221359,10.23931699
7.580664041,-0.731977844,0.212707672,10.43120819,10.45902196
7.590640042,-0.804576874,0.143102417,10.58838135,10.61987014
7.600617042,-0.809217224,0.019010468,10.7588768,10.78928283
7.610594042,-0.757724304,-0.118403778,10.88865692,10.91563169
7.620571041,-0.756526794,-0.204175415,11.07546844,11.10315368
7.630548042,-0.836759949,-0.210911407,11.33113678,11.36394789
7.640524042,-0.943937073,-0.130827942,11.57887161,11.61802053
7.650501042,-1.068927155,-0.007185059,11.84426971,11.89240859
7.660478042,-1.117126923,0.186362457,12.12343918,12.17622606
7.670455042,-1.027463379,0.303419037,12.39617203,12.4423802
7.680432042,-0.985400848,0.304466858,12.67219803,12.71409917
7.690408042,-1.108744354,0.215102692,12.96409103,13.01319482
7.700385042,-1.362915802,-0.168998566,13.27065353,13.34152709
7.710362042,-1.463356934,-0.91848999,13.38950638,13.50051549
7.720339042,-1.224304047,-2.017055511,13.22514816,13.4339859
7.730316042,-0.766855316,-3.094065857,12.78102173,13.17254064
7.740292042,-0.421972504,-3.710034943,12.2491777,12.805654
7.750269042,-0.254919891,-3.93381958,11.6932338,12.33983943
7.760246042,-0.188158722,-3.927233276,11.12531479,11.79962686
7.770223042,-0.112416229,-3.765419769,10.52296738,11.17693455
7.780200042,0.116457825,-3.553460541,9.89068222,10.51029205
7.790176041,0.295635223,-3.309916992,9.239835663,9.819242015
7.800153042,0.333656158,-3.037034454,8.618028717,9.14359468
7.810130042,0.287552032,-2.672392731,8.096662903,8.531138215
7.820107042,0.184566193,-2.298919373,7.680079193,8.018897142
7.830084042,-0.023201752,-1.908830566,7.323820038,7.56852115
7.840060042,-0.265248413,-1.422042847,6.96905777,7.117606956
7.850037042,-0.674497375,-0.791703644,6.718179474,6.798211295
7.860014042,-1.209484863,-0.010777588,6.699618073,6.807925683
7.869991042,-1.722019043,0.776285706,6.850204926,7.105862129
7.879968042,-2.04998703,1.301693115,6.950196991,7.36220687
7.889945042,-2.090552673,1.429377594,6.960675201,7.407059474
7.899921041,-1.915267181,1.258283386,6.879843292,7.251466692
7.909898042,-1.695374451,0.970581665,6.809040527,7.083738857
7.919875042,-1.633553009,0.753233643,6.81218399,7.045687126
7.929852042,-1.780098267,0.691711578,6.844217377,7.1056686
7.939829042,-1.97394516,0.722846832,6.939120026,7.250541619
7.949805042,-2.048190765,0.748742981,7.129224701,7.455303233
7.959782042,-1.92245224,0.727936249,7.291337585,7.575573746
7.969759041,-1.718576202,0.741108856,7.451354828,7.682801265
7.979736042,-1.507365417,0.788709869,7.588170319,7.776537954
7.989713042,-1.383423157,0.873433685,7.726183319,7.897509399
7.999689042,-1.295106812,0.961300964,7.91209671,8.074817369
8.009666041,-1.203347626,1.012494507,8.082741852,8.234312751
8.019643042,-1.11622879,1.094823303,8.197104034,8.344885819
8.029620042,-1.042132874,1.168170776,8.336015167,8.481734065
8.039597041,-0.984652405,1.247056732,8.555159454,8.701462184
8.049573041,-0.882864075,1.307830353,8.788075104,8.928613175
8.059550042,-0.767005005,1.297352142,9.002878418,9.128156389
8.069527042,-0.645308075,1.243164825,9.244326324,9.349836923
8.079504041,-0.46568161,1.181642761,9.447453918,9.532445883
8.089481042,-0.283959503,1.189725952,9.706864471,9.783624007
8.099457042,-0.058228912,1.199755096,10.10443771,10.17558177
8.109434042,0.286354523,1.21098175,10.43794418,10.5118578
8.119411041,0.733025665,1.209185486,10.70334229,10.79634161
8.129388042,1.078507233,1.202000427,10.95077774,11.06921479
8.139365042,1.255738678,1.301693115,11.17306549,11.31851037
8.149342041,1.29181366,1.467099152,11.24895767,11.41753963
8.159318042,1.095571747,1.601968689,11.21587646,11.38255094
8.169295042,0.667462006,1.6615448,11.14462463,11.28755487
8.179267291,0.119002533,1.646725616,11.10480743,11.22687022
8.189244292,-0.453257446,1.606908417,11.11498627,11.2396849
8.199221292,-0.969384155,1.581611023,11.22111557,11.37341786
8.209197292,-1.407073975,1.519190826,11.36915771,11.55619077
8.219174291,-1.749861145,1.331181793,11.48920807,11.69769041
8.229151292,-2.026785278,1.049467621,11.58770325,11.810339
8.239128292,-2.258802795,0.746647339,11.71478897,11.95390953
8.249105291,-2.569406891,0.388292542,11.84666473,12.12831762
8.259081292,-2.902164917,-0.038470001,11.86178329,12.2117134
8.269058292,-3.27384201,-0.552351379,11.84696411,12.30340165
8.279035292,-3.61558136,-1.057401123,11.80430283,12.39080671
8.289012291,-3.903582458,-1.398990784,11.79741714,12.50496631
8.298989292,-4.11868515,-1.617236938,11.8312468,12.63160415
8.308965292,-4.216880951,-1.831740875,11.78514267,12.65017578
8.318942292,-4.14682663,-2.021546173,11.66988235,12.54866424
8.328919291,-4.004322968,-2.148781586,11.51255951,12.37703079
8.338896292,-3.861070862,-2.272574158,11.28997238,12.14643725
8.348873292,-3.73024292,-2.494263153,11.05600891,11.93194846
8.358849292,-3.598367157,-2.640209656,10.75588303,11.64508364
8.368826292,-3.370241547,-2.658771057,10.39378601,11.24537146
8.378803292,-3.066972198,-2.608475647,9.955647125,10.73896519
8.388780292,-2.763553162,-2.422562256,9.445058899,10.13484936
8.398757291,-2.569107513,-2.107766876,8.946894836,9.544104035
8.408733292,-2.455044708,-1.737287292,8.504115601,9.020276814
8.418710292,-2.297721863,-1.38192627,8.051606598,8.486319272
8.428687292,-2.147284698,-1.04961731,7.610324249,7.976814104
8.438664292,-2.109263763,-0.713117065,7.244185638,7.578638079
8.448641292,-2.153871002,-0.368982697,6.950496368,7.285925356
8.458617292,-2.21733902,-0.036673737,6.742728424,7.098050711
8.468594292,-2.26059906,0.178878021,6.594237213,6.973253895
8.478571292,-2.330054626,0.297880554,6.506968689,6.9179859
8.488548292,-2.448308716,0.401614838,6.554270325,7.008135953
8.498525292,-2.530637512,0.449664917,6.688690796,7.16553622
8.508501292,-2.624192963,0.450413361,6.915020142,7.409909882
8.518478292,-2.737357635,0.490080872,7.258406067,7.772886511
8.528455292,-2.735561371,0.492924957,7.653135223,8.142281607
8.538432292,-2.666255493,0.344733124,8.007149048,8.446430912
8.548409292,-2.563119965,0.054786072,8.350085907,8.734787926
8.558385292,-2.407892761,-0.335751801,8.698860626,9.032211967
8.568362291,-2.214195557,-0.714164886,8.937913513,9.235745309
8.578339292,-2.10267746,-1.062041473,9.177864532,9.475356561
8.588316292,-1.99385376,-1.342408447,9.429491272,9.731023528
8.598293292,-1.905238037,-1.475930786,9.584868164,9.88321817
8.608269291,-1.864522705,-1.549877014,9.667795715,9.967188052
8.618246292,-1.842817841,-1.61005188,9.641749878,9.947441146
8.628223292,-1.784139862,-1.621877289,9.579778748,9.878552619
8.638200291,-1.699416046,-1.524878998,9.576485596,9.84491479
8.648177292,-1.625020752,-1.353036346,9.5525354,9.783779044
8.658154292,-1.538800049,-1.1665242,9.49879715,9.693081635
8.668130292,-1.426683197,-1.014889526,9.462123413,9.622744161
8.678107291,-1.315614166,-0.833616486,9.469308472,9.59653896
8.688084292,-1.187779999,-0.570613403,9.51167038,9.602515004
8.698061292,-1.028211823,-0.29832962,9.539512482,9.599401987
8.708038291,-0.8599617,-0.078137512,9.522298279,9.561370409
8.718014291,-0.61072998,0.143850861,9.563462677,9.584023297
8.727991292,-0.256566467,0.322279816,9.634115753,9.642918489
8.737968292,0.075443115,0.433199158,9.756860504,9.766764053
8.747945291,0.229921875,0.560733948,9.981094208,9.999476397
8.757922292,0.180524597,0.702189789,10.35322037,10.37857561
8.767898292,0.075143738,0.853674774,10.7774382,10.81145603
8.777875292,-0.074245605,1.039139099,11.15989288,11.20841343
8.787852291,-0.263452148,1.107397156,11.52019363,11.57629461
8.797829292,-0.450413361,1.000818787,11.83064804,11.88144535
8.807806292,-0.538130951,0.850082245,12.10682373,12.1485557
8.817782292,-0.609682159,0.487985229,12.25441681,12.27927413
8.827759292,-0.776734772,0.062569885,12.35919891,12.38374054
8.837736292,-0.869092712,-0.3065625,12.38614288,12.42037996
8.847713292,-0.859213257,-0.694705353,12.31863327,12.36808751
8.857690291,-0.844543762,-0.82373703,12.08362198,12.14107561
8.867666292,-0.879271545,-0.801732788,11.84277283,11.90240153
8.877643292,-1.10919342,-0.686622162,11.6135994,11.68663557
8.887620292,-1.543739777,-0.507594452,11.38367752,11.49908251
8.897597292,-2.06286026,-0.356558533,11.24820923,11.44136081
8.907574292,-2.525398407,-0.155376892,11.08250381,11.36765895
8.917550292,-2.937641144,-0.097746735,11.05840393,11.44235935
8.927527292,-3.31725174,-0.154628448,11.21467896,11.69602895
8.937504292,-3.46933548,-0.304017792,11.4077774,11.9275354
8.947481292,-3.426823883,-0.683029633,11.52633087,12.04433289
8.957458292,-3.372486877,-1.204994202,11.70311325,12.23881279
8.967434292,-3.259621582,-1.877695313,11.76149185,12.34842351
8.977411292,-3.028502197,-2.625839539,11.59952866,12.27256794
8.987388292,-2.658022614,-3.455713806,11.30554001,12.11702426
8.997365292,-2.149080963,-4.077820129,10.8265361,11.76694735
9.007342292,-1.684147797,-4.311184845,10.26176056,11.25728201
9.017318292,-1.365310822,-4.288581848,9.744586029,10.73373024
9.027295292,-1.169068909,-4.15026947,9.235045624,10.1920325
9.037272292,-1.057101746,-3.929478607,8.779542847,9.67670599
9.047249292,-0.921783142,-3.739224243,8.28766571,9.138757302
9.057226292,-0.725092163,-3.625610504,7.801626434,8.633434148
9.067202291,-0.417032776,-3.506308594,7.259453888,8.072656752
9.077179292,-0.118703156,-3.410358124,6.834936676,7.63943665
9.087156292,0.011226654,-3.265908508,6.530469818,7.301597118
9.097133292,0.006286926,-3.067570953,6.269861755,6.980057128
9.107110292,-0.109123077,-2.737657013,6.124813385,6.70969543
9.117086292,-0.339643707,-2.277513885,6.131399689,6.549541166
9.127063292,-0.680035858,-1.703757019,6.184539185,6.450872939
9.137040291,-0.988095245,-1.030008087,6.237978058,6.399188943
9.147017292,-1.381327515,-0.380658417,6.397845612,6.556324809
9.156994292,-1.784588928,0.225580902,6.648574219,6.887610872
9.166970292,-2.10267746,0.650397491,6.898554382,7.24115474
9.176947583,-2.21733902,0.771495667,7.124135284,7.501006695
9.186924583,-2.10147995,0.593366089,7.336094513,7.654187351
9.196901583,-1.889820099,0.327967987,7.510930939,7.751971786
9.206878583,-1.918410645,0.170196075,7.782915344,8.01767032
9.216854583,-2.194137268,0.070353699,8.118816833,8.410373046
9.226831583,-2.45953537,0.07604187,8.368048553,8.722346771
9.236808583,-2.64320343,0.074694672,8.615783386,9.012426256
9.246785583,-2.705623627,0.016615448,8.821306,9.226923367
9.256762583,-2.602338409,-0.101938019,9.028624878,9.396734738
9.266738583,-2.409090271,-0.24219635,9.24836792,9.560056704
9.276715583,-2.22197937,-0.381855927,9.405990143,9.672417321
9.286692583,-2.095342712,-0.544417877,9.589807892,9.831137641
9.296669583,-1.969903564,-0.639919281,9.73276062,9.95071083
9.306646583,-1.842219086,-0.940494232,9.68246521,9.900930921
9.316622583,-1.870809631,-0.951870575,9.920619965,10.14025082
9.326599583,-1.92364975,-0.950523376,9.976902924,10.20502401
9.336576583,-1.957329712,-1.097966766,9.947264557,10.19729095
9.346553583,-1.924697571,-0.994382172,10.17449203,10.40257395
9.356530583,-1.893113251,-0.884959717,10.35786072,10.56656567
9.366506584,-1.810784454,-0.805924072,10.47970734,10.66549201
9.376483583,-1.731000366,-0.721200256,10.62026505,10.78455014
9.386460583,-1.671723633,-0.681981812,10.68792435,10.83934896
9.396437583,-1.644480286,-0.674497375,10.6912175,10.83796077
9.406414583,-1.695374451,-0.712518311,10.60335022,10.76164545
9.416391583,-1.787283325,-0.742456055,10.55739578,10.73332327
9.426367583,-1.828298035,-0.756377106,10.42956161,10.61557985
9.436344584,-1.824705505,-0.801732788,10.40396484,10.59314921
9.446321583,-1.778900757,-0.756377106,10.4364473,10.61395432
9.456298583,-1.75510025,-0.726888428,10.54976166,10.71943164
9.466274583,-1.759590912,-0.749042358,10.63568298,10.80624714
9.476251584,-1.738185425,-0.902473297,10.75019485,10.92714217
9.486228583,-1.66274231,-1.069226532,10.8450975,11.02379686
9.496205583,-1.555265808,-1.243314514,10.89703949,11.07746146
9.506182584,-1.402134247,-1.388512573,10.97772171,11.15366852
9.516159583,-1.216819611,-1.490749969,11.07472,11.24065872
9.526135583,-1.013093262,-1.520088959,11.13938553,11.28817693
9.536112583,-0.746797028,-1.384470978,11.17935242,11.28948122
9.546089584,-0.5640271,-1.100960541,11.13190109,11.20042243
9.556066583,-0.564625854,-0.733774109,11.1543544,11.1927141
9.566043583,-0.782722321,-0.370629272,11.17516113,11.20866837
9.576019583,-1.19227066,-0.092507629,11.19102814,11.25474023
9.585996583,-1.668131104,0.038170624,11.2260553,11.34938042
9.595973583,-2.193239136,-0.066162415,11.24491608,11.45699843
9.605950583,-2.766546936,-0.390388184,11.40643021,11.74362955
9.615927584,-3.199596405,-0.827179871,11.5179483,11.98268654
9.625903583,-3.478167114,-1.437161407,11.61494659,12.2094252
9.635880583,-3.730991364,-2.051483917,11.80954193,12.5536514
9.645857583,-3.850293274,-2.667303314,11.76283905,12.66110768
9.655834583,-3.755839691,-3.23761734,11.48920807,12.51360859
9.665811583,-3.386707306,-3.852837982,11.03610031,12.1700311
9.675787583,-2.776276703,-4.631518707,10.50290909,11.80973231
9.685764583,-2.028282166,-5.205874329,9.829160156,11.30608002
9.695741583,-1.329086151,-5.40810379,9.053772583,10.62943341
9.705718583,-1.052311707,-5.261259155,8.334817657,9.912486732
9.715695583,-1.30109436,-4.790937195,7.79743515,9.243696266
9.725671583,-1.874102783,-4.208648071,7.342680817,8.668329793
9.735648583,-2.344574432,-3.724704437,6.952442322,8.228420666
9.745625583,-2.632575531,-3.297642517,6.614145813,7.845497112
9.755602583,-2.788102112,-2.929707642,6.388115845,7.560735698
9.765579583,-2.824027405,-2.674937439,6.260581055,7.3705696
9.775555583,-2.834206238,-2.44426712,6.302643585,7.330107974
9.785532583,-2.793191528,-2.212548981,6.478976898,7.394216223
9.795509583,-2.700234833,-1.970352631,6.715185699,7.501151686
9.805486583,-2.58242981,-1.706451416,7.01231781,7.665084554
9.815463583,-2.461331635,-1.513053589,7.31423996,7.864196765
9.825439584,-2.312241669,-1.413959656,7.548802185,8.020608323
9.835416583,-2.160307617,-1.371448059,7.743846588,8.155670344
9.845393583,-2.045496368,-1.336420898,7.961044922,8.327563417
9.855370583,-1.964065704,-1.308878174,8.195457458,8.528554339
9.865347583,-1.968556366,-1.280886383,8.456364899,8.776445259
9.875323583,-1.963916016,-1.329984283,8.73463623,9.050949916
9.885300583,-1.85224823,-1.356628876,8.977431335,9.266365997
9.895277584,-1.626517639,-1.371747437,9.157506866,9.401445775
9.905254583,-1.364263,-1.485361176,9.286388855,9.502869531
9.915231583,-1.139580231,-1.642534332,9.318422241,9.530454092
9.925207583,-1.015488281,-1.743125153,9.273964691,9.490844158
9.935184584,-0.989143066,-1.788031769,9.269174652,9.491736424
9.945161583,-1.068627777,-1.810485077,9.267827454,9.503286129
9.955138583,-1.143472137,-1.786085815,9.276060333,9.515404688
9.965115584,-1.148411865,-1.738035736,9.308692474,9.538939858
9.975091583,-1.10919342,-1.673669586,9.363328857,9.576189598
9.985068583,-1.01563797,-1.59717865,9.48008606,9.667188414
9.995045583,-0.891546021,-1.486558685,9.614207153,9.769221577
10.00502258,-0.760269012,-1.383273468,9.760602722,9.88740714
10.01499958,-0.674946442,-1.344055023,9.8697258,9.983662853
10.02497558,-0.571661224,-1.314416656,9.974807281,10.07726491
10.03495258,-0.443527679,-1.300046539,10.06252487,10.1558478
10.04492958,-0.315244446,-1.246757355,10.21790176,10.29850957
10.05490658,-0.24923172,-1.149160309,10.30472122,10.37159416
10.06488358,-0.263751526,-1.032403107,10.44228516,10.49651086
10.07485958,-0.340841217,-0.983155518,10.61218185,10.66307513
10.08483658,-0.465382233,-0.967737579,10.83072739,10.88382986
10.09481358,-0.558937683,-1.053359528,11.10705276,11.17088174
10.10479058,-0.580492859,-1.293759613,11.45178589,11.53924547
10.11476758,-0.589324493,-1.572929077,11.82196609,11.94069896
10.12474358,-0.537831573,-1.668280792,12.0726947,12.19927789
10.13472058,-0.412691803,-1.745969238,12.26130249,12.39186273
10.14469758,-0.195044403,-1.869911499,12.40994339,12.55154597
10.15467458,0.145796814,-1.95523407,12.49391876,12.64682581
10.16465158,0.42706192,-1.894161072,12.68806503,12.83577899
10.17462758,0.556392975,-1.672921143,12.97217422,13.09143011
10.18460496,0.518222351,-1.447040863,13.28637085,13.37498157
10.19458196,0.451161804,-1.29645401,13.50611389,13.57569344
10.20455896,0.391136627,-1.351240082,13.68139938,13.75352779
10.21453596,0.299976196,-1.684746552,13.68693787,13.79349937
10.22451196,0.224533081,-2.341730347,13.45207626,13.65622466
10.23448896,0.230969696,-3.253184967,13.03055283,13.43249293
10.24446596,0.297281799,-3.902384949,12.36398895,12.96862397
10.25444296,0.244291992,-4.231251068,11.64263901,12.39008504
10.26441996,0.117954712,-4.433630219,10.84285217,11.71488086
10.27439596,0.067060547,-4.467908936,10.10249176,11.04658532
10.28437296,0.108374634,-4.455035706,9.476792908,10.47228208
10.29434996,0.157173157,-4.377197571,8.962163086,9.975215745
10.30432696,0.156275024,-4.226011963,8.391250305,9.396631347
10.31430396,0.096998291,-4.001628571,7.878117371,8.836694698
10.32427996,0.061222687,-3.651057587,7.438930664,8.286836498
10.33425696,0.039517822,-3.212769012,7.107370148,7.799881845
10.34423396,-0.063468018,-2.7391539,6.849157104,7.376851993
10.35421096,-0.27497818,-2.228116608,6.625671844,6.995687529
10.36418796,-0.592318268,-1.731150055,6.524332581,6.776034022
10.37416396,-0.956510925,-1.27310257,6.490353241,6.682842845
10.38414096,-1.301842804,-0.922232208,6.490203552,6.683415974
10.39411796,-1.57846756,-0.617316284,6.563700714,6.77899744
10.40409496,-1.747615814,-0.421074371,6.694229279,6.931390214
10.41407196,-1.850601654,-0.366587677,6.840774536,7.096147494
10.42404796,-1.784139862,-0.461490326,6.995103607,7.233782057
10.43402496,-1.634301453,-0.61432251,7.149732056,7.359823493
10.44400196,-1.478625183,-0.772842865,7.319329376,7.507076731
10.45397896,-1.375040588,-0.907113647,7.548353119,7.726009746
10.46395596,-1.228794708,-1.028810577,7.794291687,7.957346954
10.47393196,-1.027164001,-1.153052216,8.052804108,8.199527382
10.48390896,-0.82493454,-1.226848755,8.2771875,8.408181003
10.49388596,-0.646056519,-1.212328949,8.45037735,8.56130877
10.50386296,-0.468376007,-1.153052216,8.639284515,8.728467359
10.51383996,-0.283959503,-1.042881317,8.775351563,8.841664407
10.52381596,-0.158071289,-0.851130066,8.850046234,8.892284705
10.53379296,-0.013322296,-0.590671692,8.886570282,8.906188967
10.54376996,0.140707397,-0.286953278,8.897946625,8.903684344
10.55374696,0.292342072,-0.051193542,8.90438324,8.909328008
10.56372396,0.43649231,0.142054596,8.874295807,8.886159526
10.57369996,0.533640289,0.335302734,8.877289581,8.899633149
10.58367696,0.634380798,0.477806396,8.927435303,8.962691506
10.59365396,0.748593292,0.621507568,8.955127716,9.007828594
10.60363096,0.87283493,0.734372864,9.015751648,9.087624667
10.61360796,0.922681274,0.783171387,9.083560638,9.16382955
10.62358396,0.938099213,0.820443878,9.147926788,9.232427786
10.63356096,0.97582077,0.812360687,9.193881226,9.281142605
10.64353796,0.978964233,0.761316833,9.250463562,9.333222938
10.65351496,0.921334076,0.722846832,9.298214264,9.371667542
10.66349196,0.867296448,0.698148193,9.39700882,9.462736855
10.67346796,0.800684967,0.684227142,9.482630768,9.540940702
10.68344496,0.606838074,0.542621613,9.562115479,9.596704804
10.69342196,0.42586441,0.323177948,9.67078949,9.685554906
10.70339896,0.214803314,0.011076965,9.859696655,9.862042451
10.71337496,-0.042361908,-0.34054184,10.06506958,10.07091798
10.72335196,-0.219743042,-0.705782318,10.31504974,10.34150216
10.73332896,-0.312550049,-0.98285614,10.62954575,10.67946331
10.74330596,-0.442030792,-1.084943848,11.02637054,11.08843279
10.75328296,-0.553997955,-1.025517426,11.48232239,11.54133126
10.76325996,-0.652792511,-0.947230225,11.81493073,11.87080331
10.77323596,-0.759819946,-0.889450378,12.08511887,12.14160394
10.78321296,-0.895737305,-0.878223724,12.39467514,12.45799318
10.79318996,-1.108295288,-0.887504425,12.68821472,12.76741068
10.80316696,-1.392703857,-0.941991119,12.93894333,13.04772876
10.81314396,-1.751807098,-1.147513733,13.21691528,13.38179605
10.82311996,-2.139500885,-1.378184052,13.46809296,13.70643583
10.83309696,-2.504292297,-1.678459625,13.68963226,14.01765808
10.84307396,-2.751877441,-2.068099365,13.85533768,14.27656284
10.85305096,-2.726729736,-2.514620819,13.93512177,14.42033257
10.86302696,-2.55084549,-3.121009827,13.86401962,14.43809389
10.87300396,-2.264640656,-3.828738098,13.53635101,14.24853085
10.88298096,-1.837728424,-4.478836212,12.87577469,13.75582762
10.89295796,-1.416654053,-4.934189301,11.95294373,13.00868927
10.90293496,-1.196461945,-4.971761169,10.96424973,12.09812805
10.91291096,-1.220262451,-4.613556061,10.12195129,11.19052447
10.92288796,-1.464105377,-4.10236908,9.374555511,10.33708507
10.93286496,-1.685345306,-3.486250305,8.642877045,9.470673345
10.94284196,-1.773362274,-2.764002228,8.035739594,8.680877426
10.95281896,-1.853894806,-2.03007843,7.577991486,8.061271571
10.96279496,-2.061962128,-1.3748909,7.211553497,7.625517467
10.97277196,-2.324366455,-0.826880493,7.005132751,7.426863109
10.98274896,-2.545606384,-0.403860168,6.945107574,7.407950737
10.99272596,-2.607278137,-0.167202301,6.97833847,7.451379986
11.00270296,-2.557880859,-0.156275024,7.114854584,7.562296749
11.01267896,-2.509531403,-0.193248138,7.346423035,7.765630954
11.02265596,-2.469115448,-0.125439148,7.630232849,8.020768006
11.03263296,-2.421813812,-0.135617981,7.949369202,8.311199978
11.04260996,-2.381547546,-0.301173706,8.27838501,8.619404428
11.05258696,-2.430645447,-0.418230286,8.547824707,8.896530845
11.06256296,-2.499951324,-0.633183289,8.791817322,9.162244786
11.07253996,-2.550995178,-0.905467072,8.926836548,9.32822908
11.08251696,-2.559677124,-1.229543152,9.046138458,9.481368274
11.09249396,-2.524799652,-1.527872772,9.135053558,9.599906875
11.10247096,-2.481240234,-1.695673828,9.136700134,9.618271787
11.11244696,-2.45489502,-1.807640991,9.094787292,9.592144255
11.12242396,-2.457589417,-1.855990448,9.028026123,9.538852235
11.13240096,-2.401156769,-1.795665894,8.932674408,9.422454134
11.14237796,-2.318378906,-1.71184021,8.726103973,9.189677264
11.15235496,-2.212698669,-1.656305695,8.527317352,8.964068562
11.16233096,-2.170636139,-1.470242615,8.35442688,8.75612489
11.17230796,-2.20087326,-1.200353851,8.198301544,8.573029843
11.18228421,-2.236349487,-0.95366684,8.132438507,8.488067833
11.19226121,-2.270179138,-0.705333252,8.107141113,8.448487755
11.20223821,-2.247426453,-0.467028809,8.122409363,8.440531703
11.21221421,-2.233804779,-0.291144562,8.2280896,8.530891361
11.22219121,-2.176174622,-0.191302185,8.313112793,8.595357864
11.23216821,-2.059267731,-0.18486557,8.39768692,8.64846255
11.24214521,-1.890418854,-0.212557983,8.557853851,8.766739809
11.25212121,-1.75510025,-0.234562225,8.718619537,8.896613005
11.26209821,-1.635948029,-0.214953003,8.878337402,9.030360224
11.27207521,-1.539249115,-0.091459808,9.117689667,9.247157271
11.28205221,-1.453627167,0.151035919,9.365125122,9.478470992
11.29202921,-1.397793274,0.417631531,9.675878906,9.785237592
11.30200521,-1.353635101,0.692909088,9.969867554,10.08517278
11.31198221,-1.309476929,1.026265869,10.30202682,10.4355023
11.32195921,-1.28477829,1.319206696,10.72160431,10.87859184
11.33193621,-1.211430817,1.538800049,11.06184677,11.23387396
11.34191321,-1.114432526,1.636397095,11.38727005,11.55809995
11.35188921,-1.009949799,1.678309937,11.56075928,11.7255225
11.36186621,-0.882714386,1.644779663,11.64084274,11.78955913
11.37184321,-0.820443878,1.530866547,11.61000687,11.73920525
11.38182021,-0.802930298,1.382824402,11.52169052,11.6321216
11.39179721,-0.907712402,1.210832062,11.46705414,11.56647685
11.40177321,-1.070723419,1.040336609,11.43352386,11.53057747
11.41175021,-1.271755371,0.97118042,11.41286682,11.52449922
11.42172721,-1.476379852,0.975970459,11.4011911,11.53773697
11.43170421,-1.575623474,0.924776917,11.42484192,11.56999631
11.44168121,-1.568438416,0.788410492,11.44579834,11.57963254
11.45165721,-1.568737793,0.521365814,11.54638916,11.66412719
11.46163421,-1.672921143,0.336051178,11.74188263,11.86521821
11.47161121,-1.838776245,0.185464325,12.03766754,12.17870826
11.48158821,-1.925146637,-0.190404053,12.26878693,12.4203694
11.49156521,-1.826801147,-0.772393799,12.38090378,12.53876282
11.50154121,-1.632505188,-1.437161407,12.41877502,12.60779438
11.51151821,-1.380130005,-2.127675476,12.18645813,12.4475509
11.52149521,-1.080303497,-2.593357086,11.76957504,12.10022534
11.53147221,-0.841999054,-2.819536743,11.3215567,11.69770901
11.54144921,-0.722996521,-2.969824219,10.90811646,11.32826485
11.55142521,-0.715512085,-2.933300171,10.48569489,10.91173701
11.56140221,-0.67749115,-2.792892151,10.06267456,10.46502079
11.57137921,-0.592617645,-2.713108063,9.70357132,10.09313863
11.58135621,-0.453856201,-2.675536194,9.294771423,9.682833015
11.59133221,-0.259260864,-2.632575531,8.787925415,9.177434458
11.60130921,-0.108674011,-2.584974518,8.36265976,8.753741003
11.61128621,-0.100141754,-2.356699219,8.063881073,8.401799661
11.62126321,-0.185913391,-1.94355835,7.843389587,8.082743536
11.63124021,-0.383053436,-1.385967865,7.710765381,7.843694258
11.64121621,-0.649499359,-0.534837799,7.661068726,7.707131432
11.65119321,-0.985550537,0.381855927,7.689509583,7.76180916
11.66117021,-1.320853271,1.02731369,7.676636353,7.856893309
11.67114721,-1.56559433,1.444047089,7.689659271,7.979173974
11.68112421,-1.625020752,1.711391144,7.69100647,8.044944537
11.69110021,-1.578168182,1.832489319,7.689210205,8.060557393
11.70107721,-1.539698181,1.826202393,7.693700867,8.0559741
11.71105421,-1.55152359,1.806892548,7.653733978,8.015717681
11.72103121,-1.664688263,1.85105072,7.645052032,8.040173901
11.73100821,-1.791474609,1.891017609,7.682623901,8.112215411
11.74098421,-1.886676636,1.925895081,7.659272461,8.119918424
11.75096121,-1.884431305,1.915117493,7.618856506,8.078720865
11.76093821,-1.847009125,1.838027802,7.633526001,8.066009429
11.77091521,-1.768721924,1.746567993,7.628885651,8.023638406
11.78089221,-1.70360733,1.660796356,7.6441539,8.00584857
11.79086821,-1.667532349,1.586700439,7.65822464,7.996667247
11.80084521,-1.62876297,1.555565186,7.757767639,8.078094491
11.81082221,-1.549877014,1.530716858,7.845036163,8.141855149
11.82079921,-1.474733276,1.536704407,7.910749512,8.19245119
11.83077621,-1.418749695,1.668879547,8.059390411,8.351753315
11.84075221,-1.415456543,1.857786713,8.210875397,8.536589686
11.85072921,-1.434017944,2.019001465,8.365054779,8.723927776
11.86070621,-1.448238373,2.17632431,8.555907898,8.946359139
11.87068321,-1.398541718,2.271526337,8.790170746,9.186013966
11.88066021,-1.424138489,2.332449646,8.9991362,9.404942537
11.89063621,-1.530866547,2.371518402,9.250463562,9.671542174
11.90061321,-1.651815033,2.37181778,9.562564545,9.989827484
11.91059021,-1.722617798,2.35415451,9.879156189,10.30083407
11.92056721,-1.708547058,2.295626221,10.11461655,10.51163644
11.93054421,-1.675016785,2.196083221,10.26400589,10.62912412
11.94052021,-1.72591095,2.099384308,10.44767395,10.79537281
11.95049721,-1.795815582,2.004032593,10.61248123,10.94832673
11.96047421,-1.873653717,1.885479126,10.74705139,11.07089533
11.97045121,-1.980232086,1.742975464,10.91694809,11.23116371
11.98042721,-2.075434113,1.616039429,11.06034988,11.36883238
11.99040421,-2.13770462,1.409618683,11.14926498,11.43953301
12.00038121,-2.176923065,1.198258209,11.25689117,11.52789728
12.01035821,-2.173031158,0.97462326,11.31018036,11.55820638
12.02033521,-2.156116333,0.82134201,11.2923674,11.52566709
12.03031121,-2.112706604,0.805924072,11.25210114,11.47705636
12.04028821,-2.019899597,0.91265213,11.18923187,11.40665763
12.05026521,-1.900148621,1.04602478,11.07367218,11.28410157
12.06024221,-1.83114212,1.187031555,10.99014587,11.20470578
12.07021921,-1.939217377,1.418300629,10.95466965,11.21503133
12.08019521,-2.155367889,1.668430481,10.89374634,11.22955833
12.09017221,-2.395019531,1.824855194,10.77773758,11.19043531
12.10014921,-2.580783234,1.910327454,10.68268524,11.15479973
12.11012621,-2.703228607,1.91781189,10.57161621,11.07901244
12.12010321,-2.719544678,1.783990173,10.39887543,10.89564841
12.13007921,-2.609972534,1.576820984,10.26146118,10.70494776
12.14005621,-2.448458405,1.437460785,10.16610947,10.55514205
12.15003321,-2.361938324,1.336869965,10.12614258,10.48354603
12.16001021,-2.299817505,1.192120972,10.01267853,10.3423423
12.16998721,-2.156266022,0.982107697,9.692344666,9.977753445
12.17996708,-2.008223877,0.702938232,9.362430725,9.601155888
12.18994408,-1.902244263,0.346978455,9.012458496,9.217555827
12.19992108,-1.831291809,-0.132324829,8.625662842,8.818911441
12.20989808,-1.871408386,-0.617316284,8.268355865,8.499938674
12.21987508,-2.020648041,-0.831221466,8.095465393,8.385136109
12.22985108,-2.156565399,-0.902024231,8.125403137,8.454974759
12.23982808,-2.234553223,-1.010698242,8.202492828,8.561286565
12.24980508,-2.241438904,-1.145867157,8.219407654,8.596262099
12.25978208,-2.259850616,-1.213676147,8.329578552,8.715607463
12.26975808,-2.24772583,-1.151106262,8.541986847,8.907460712
12.27973508,-2.188149719,-0.986298981,8.839118958,9.159192586
12.28971208,-2.044448547,-0.710722046,9.207053833,9.458051384
12.29968908,-1.737736359,-0.371826782,9.564809875,9.728492728
12.30966608,-1.420396271,-0.136067047,9.878407745,9.980930788
12.31964208,-1.189576263,0.089513855,10.07420059,10.14458585
12.32961908,-1.224902802,0.570912781,10.26265869,10.35125556
12.33959608,-1.433119812,1.059646454,10.51398605,10.66398545
12.34957308,-1.683848419,1.459614716,10.63658112,10.86750562
12.35955008,-1.771266632,1.65570694,10.74420731,11.01438794
12.36952608,-1.585053864,1.641037445,10.91260712,11.14856016
12.37950308,-1.21801712,1.55736145,10.91470276,11.09232513
12.38948008,-0.841699677,1.327439575,10.79659836,10.91041201
12.39945708,-0.628992004,1.196911011,10.6939119,10.77905277
12.40943408,-0.479602661,1.22505249,10.52835617,10.61023355
12.41941008,-0.348325653,1.279090118,10.05893234,10.1459116
12.42938708,-0.473016357,1.391955414,9.56196579,9.674320344
12.43936408,-0.707578583,1.518592072,9.183852081,9.335412598
12.44934108,-0.824036407,1.659449158,8.866362305,9.057879886
12.45931808,-0.820443878,1.814227295,8.568930817,8.797222526
12.46929408,-0.713865509,1.886077881,8.440348206,8.677924381
12.47927108,-0.598605194,1.959125977,8.363857269,8.611074915
12.48924808,-0.444874878,2.007176056,8.332422638,8.582303676
12.49922508,-0.364641724,2.052531738,8.362959137,8.618870903
12.50920108,-0.34054184,2.1459375,8.471483459,8.745687423
12.51917808,-0.307460632,2.259102173,8.55680603,8.855337606
12.52915508,-0.30416748,2.357447662,8.620423737,8.942135245
12.53913208,-0.389040985,2.487826538,8.751850433,9.10689408
12.54910908,-0.480201416,2.620450745,8.869056702,9.260535745
12.55908508,-0.566571808,2.716401215,8.990005188,9.408508514
12.56906208,-0.686023407,2.75666748,9.201814728,9.63032907
12.57903908,-0.749790802,2.831960907,9.385632477,9.832206559
12.58901608,-0.704285431,2.876867523,9.635313263,10.08026023
12.59899308,-0.566122742,2.854563904,9.955198059,10.37183679
12.60896908,-0.393381958,2.758164368,10.22568558,10.59843694
12.61894608,-0.229622498,2.694097595,10.38749908,10.7336399
12.62892308,-0.201181641,2.655178528,10.51982391,10.8515963
12.63890008,-0.281863861,2.634222107,10.56323364,10.89038467
12.64887708,-0.431702271,2.568808136,10.50320847,10.82139225
12.65885308,-0.579894104,2.352208557,10.57221497,10.84623859
12.66883008,-0.542621613,2.099983063,10.55889267,10.77935905
12.67880708,-0.543819122,1.994901581,10.61906754,10.81850114
12.68878408,-0.553249512,1.997446289,10.76202026,10.95978818
12.69876108,-0.382005615,1.939067688,10.74735077,10.92755509
12.70873708,-0.125439148,1.824705505,10.71232361,10.86734385
12.71871408,0.037571869,1.743873596,10.69361252,10.8349368
12.72869108,0.05613327,1.727707214,10.65753754,10.79681571
12.73866808,-0.009280701,1.740580444,10.68687653,10.82769765
12.74864508,-0.065713348,1.662143555,10.78447357,10.91200759
12.75862108,-0.112416229,1.546733551,10.94673615,11.05604153
12.76859808,0.042661285,1.310375061,11.13220047,11.20913869
12.77857508,0.641565857,0.8108638,11.21363113,11.26120021
12.78855208,1.414109344,0.342637482,11.07097778,11.16618354
12.79852808,2.05118454,0.086969147,10.92323502,11.11449436
12.80850508,2.322270813,0.007484436,10.61697189,10.86798463
12.81848208,2.31912735,0.026195526,10.27478348,10.53329072
12.82845908,2.261347504,0.044158173,9.935139771,10.18933976
12.83843608,2.320923615,0.091459808,9.582622833,9.860107083
12.84841208,2.329006805,0.146844635,9.186696167,9.478460978
12.85838908,2.207160187,0.275427246,8.824898529,9.10089283
12.86836608,1.997446289,0.487386475,8.629554749,8.871107733
12.87834308,1.846560059,0.844244385,8.443940735,8.684622488
12.88832008,1.772464142,1.467398529,8.304879913,8.617767574
12.89829608,1.785786438,2.178569641,8.316855011,8.780961004
12.90827308,1.812281342,2.771486664,8.371341705,9.002492096
12.91825008,1.823208618,3.039579163,8.37313797,9.092445799
12.92822708,1.919159088,3.278931427,8.364306335,9.18673954
12.93820408,2.053878937,3.961362305,8.464747467,9.568843173
12.94818008,1.97274765,4.374503174,8.613538055,9.860073486
12.95815708,1.813478851,4.66624649,8.636889496,9.982906491
12.96813408,1.592388611,4.596790924,8.430169373,9.733136387
12.97811108,1.455273743,4.398603058,8.145611115,9.371046417
12.98808808,1.508113861,4.478087769,7.920179901,9.222631249
12.99806408,1.556014252,4.516258392,7.691455536,9.054074137
13.00804108,1.517993317,4.487518158,7.49326767,8.865166851
13.01801808,1.44734024,4.504133606,7.283853149,8.685420543
13.02799508,1.348545685,4.511168976,7.0907547,8.511640453
13.03797208,1.271455994,4.504133606,6.879843292,8.32082109
13.04794808,1.215173035,4.481979675,6.728208618,8.175180642
13.05792508,1.176253967,4.49200882,6.588998108,8.060807199
13.06790208,1.22864502,4.526886292,6.568490753,8.071390144
13.07787908,1.340013428,4.531526642,6.544540558,8.072259957
13.08785508,1.481020203,4.498894501,6.565047913,8.095265694
13.09783208,1.62412262,4.50368454,6.646777954,8.191495949
13.10780908,1.779050446,4.554129639,6.777605896,8.357096322
13.11778608,1.976489868,4.587510223,6.941065979,8.551617343
13.12776308,2.207459564,4.589007111,7.120093689,8.753719103
13.13773908,2.379601593,4.573738861,7.233857117,8.883145822
13.14771608,2.423610077,4.574337616,7.411238251,9.040182677
13.15769308,2.422562256,4.64993042,7.614216156,9.244833609
13.16767008,2.471510468,4.866829376,7.811206512,9.529393441
13.17764708,2.500550079,5.10513382,8.096213837,9.892614442
13.18762092,2.452350311,5.217550049,8.353379059,10.14966956
13.19759792,2.427052917,5.19988678,8.600515137,10.33916191
13.20757492,2.42675354,5.245092773,8.830886078,10.55389406
13.21755192,2.420316925,5.372926941,9.104816437,10.84545805
13.22752892,2.472857666,5.587580566,9.397308197,11.20916959
13.23750492,2.609074402,5.881419525,9.66959198,11.61461897
13.24748192,2.646047516,6.170468445,9.889484711,11.95316511
13.25745892,2.37406311,5.558540955,9.156908112,10.9718968
13.26743592,2.46417572,5.763165436,8.575217743,10.62170406
13.27741292,2.838547211,6.864575043,8.757538605,11.48365026
13.28738892,2.66430954,7.816894684,11.43277542,14.10357195
13.29736592,1.835932159,8.292605438,13.11692322,15.62663196
13.30734292,0.869691467,8.444838867,12.76156219,15.32739823
13.31731992,0.290994873,8.34275116,11.91866501,14.55131439
13.32729592,0.127235413,7.772437134,11.52588181,13.9022631
13.33727292,0.434845734,6.738836517,11.23428818,13.10764049
13.34724992,1.063538361,5.72170166,11.02711899,12.46861407
13.35722692,1.593885498,4.963677979,11.85429886,12.9500182
13.36720392,1.764680328,4.043691101,12.73147476,13.47427119
13.37717992,1.741328888,3.139122162,12.17388428,12.69211459
13.38715692,1.90254364,2.637066193,10.68373306,11.16762923
13.39713392,1.956132202,2.450404358,9.871072998,10.35707569
13.40711092,1.637444916,2.359543304,9.19223465,9.630464595
13.41708792,1.009351044,2.34487381,8.316705322,8.699701727
13.42706392,0.17079483,2.448608093,7.552394714,7.941254208
13.43704092,-0.834664307,2.653082886,7.365583191,7.873203226
13.44701792,-1.616638184,3.108435974,7.3176828,8.11322222
13.45699492,-1.792073364,3.441044312,7.008575592,8.010770545
13.46697192,-1.524729309,3.381617889,6.862629089,7.801013847
13.47694792,-1.081950073,3.234623566,6.702611847,7.520532637
13.48692492,-0.673748932,3.134182434,6.664441223,7.395391401
13.49690192,-0.477507019,3.063978424,6.734794922,7.414407554
13.50687892,-0.395178223,3.040626984,6.794969788,7.454742966
13.51685592,-0.229023743,3.02116745,6.741081848,7.390675823
13.52683192,-0.048798523,3.029999084,6.664441223,7.321069086
13.53680892,0.099842377,3.09601181,6.530619507,7.228018316
13.54678592,0.151784363,3.143762512,6.459667053,7.185650956
13.55676292,0.113164673,3.190914459,6.425837402,7.17538345
13.56673892,0.119601288,3.292403412,6.411467285,7.208407414
13.57671592,0.246088257,3.413351898,6.471342773,7.320505987
13.58669292,0.453407135,3.543431396,6.578370209,7.48574904
13.59666992,0.603245544,3.644321594,6.660699005,7.616422802
13.60664692,0.730031891,3.780688019,6.786287842,7.802579774
13.61662292,0.874182129,3.989204407,6.957082672,8.067152255
13.62659992,0.956211548,4.21583313,7.082072754,8.297188921
13.63657692,0.980012054,4.4405159,7.244784393,8.553683767
13.64655392,1.044378204,4.619693298,7.471562805,8.846272817
13.65653092,1.131646729,4.8160849,7.616910553,9.082545043
13.66650692,1.163380737,5.041516113,7.818092194,9.3751216
13.67648392,1.144819336,5.222789154,7.969128113,9.596621319
13.68646092,1.117276611,5.359754333,8.093818817,9.771651682
13.69643792,1.18059494,5.426216125,8.245303802,9.940958739
13.70641492,1.341061249,5.422473907,8.371192017,10.06372318
13.71639092,1.522034912,5.342240753,8.613987122,10.24972686
13.72636792,1.717378693,5.261408844,8.828640747,10.42001488
13.73634492,1.902094574,5.196743317,9.016500092,10.57929009
13.74632192,1.998943176,5.148543549,9.239236908,10.76414294
13.75629892,1.969155121,5.137765961,9.448950806,10.93420698
13.76627492,1.919458466,5.177433472,9.636361084,11.1062862
13.77625192,1.8991008,5.237608337,9.823921051,11.29373941
13.78622892,1.96571228,5.396727448,9.919721832,11.46252909
13.79620592,1.990560608,5.549559631,10.07420059,11.67259445
13.80618192,1.816322937,5.579197998,10.38914566,11.93150564
13.81615892,1.542691956,5.575904846,10.76830719,12.22403587
13.82613592,1.322649536,5.495971069,11.2167746,12.56069792
13.83611292,1.184636536,5.266947327,11.64428558,12.83485429
13.84608992,1.100062408,4.971461792,11.96716415,13.0053292
13.85606592,0.905317383,4.736001434,12.28764771,13.19983315
13.86604292,0.558787994,4.657115479,12.42640915,13.28219157
13.87601992,0.037122803,4.696034546,12.58971954,13.43708141
13.88599692,-0.399968262,4.625830536,12.57729538,13.40696244
13.89597392,-0.533640289,4.05551651,12.60139526,13.24866592
13.90594992,-0.119750977,2.756218414,12.54211853,12.84195536
13.91592692,0.804876251,1.045126648,12.22492813,12.29589294
13.92590392,1.885628815,-0.443228302,11.69877228,11.85804875
13.93588092,2.640658722,-1.348695374,11.06484055,11.45525006
13.94585792,2.905009003,-1.950893097,9.846823425,10.45011927
13.95583392,2.860551453,-2.225721588,8.882828064,9.59381184
13.96581092,2.66430954,-1.717079315,8.562943268,9.130766896
13.97578792,2.394420776,-0.690514069,8.373587036,8.73653366
13.98576492,2.036215668,0.149239655,8.005053406,8.261315074
13.99574192,1.69312912,1.075962524,7.782316589,8.036717804
14.00571792,1.288071442,1.967807922,7.589966583,7.94600458
14.01569492,0.66806076,2.770588531,7.879165192,8.378765429
14.02567192,0.065114594,3.492986298,8.014483795,8.742833848
14.03564892,-0.283660126,3.684737549,7.9308078,8.749598061
14.04562492,-0.244890747,3.49508194,7.92736496,8.667103579
14.05560192,0.01751358,3.266507263,7.939489746,8.585212511
14.06557892,0.14504837,3.091521149,7.992928619,8.571198863
14.07555592,-0.040415955,3.017425232,8.013286285,8.562665798
14.08553292,-0.4153862,3.111130371,8.124654694,8.709861754
14.09550892,-0.758622437,3.300187225,8.275540924,8.941550274
14.10548592,-0.965641937,3.413651276,8.395740967,9.114490977
14.11546292,-1.098266144,3.464844818,8.465645599,9.212952488
14.12543992,-1.312321014,3.653602295,8.498427429,9.343139994
14.13541692,-1.668729858,4.002377014,8.555159454,9.591372915
14.14539292,-2.241738281,4.468058624,8.636590118,9.978959228
14.15536992,-3.029100952,5.089416504,8.773405609,10.58537949
14.16534692,-4.00641861,5.540578308,9.089099121,11.37370304
14.17532392,-4.801714783,5.367987213,9.55837326,11.96805126
14.18530367,-5.020410004,4.695286102,9.952204285,12.09531307
14.19527967,-4.675826569,3.8764888,10.16595978,11.84218129
14.20525667,-4.268224182,3.178939362,10.28855484,11.58351215
14.21523367,-3.97124176,2.689606934,10.40336609,11.45577464
14.22521067,-3.678151245,2.264041901,10.3434906,11.20903565
14.23518767,-3.316203918,1.854044495,10.15937347,10.84654594
14.24516367,-2.82103363,1.522783356,10.01193008,10.51265161
14.25514067,-2.258802795,1.108894043,9.982291718,10.29456089
14.26511767,-1.693278809,0.773142242,9.925110626,10.09815642
14.27509467,-1.285826111,0.669407959,9.884395294,9.990131437
14.28507067,-0.977617035,0.611029358,9.97151413,10.03793734
14.29504767,-0.558039551,0.517773285,9.953102417,9.982171359
14.30502467,0.003143463,0.488883362,9.884694672,9.896777535
14.31500167,0.681233368,0.645158386,9.730814667,9.77594304
14.32497867,1.374142456,0.921334076,9.45314209,9.596823398
14.33495467,1.878892822,1.249302063,9.161099396,9.434868098
14.34493167,2.092798004,1.614243164,8.813821564,9.201577856
14.35490867,2.154469757,1.964215393,8.482261047,8.969316279
14.36488567,2.119592285,2.285297699,8.248596954,8.817857378
14.37486267,1.925446014,2.642155609,7.956404572,8.601901088
14.38483867,1.726659393,3.164718933,7.676187286,8.480604332
14.39481567,1.485361176,3.7185672,7.590415649,8.581867487
14.40479267,1.159488831,4.146377563,7.670349426,8.796085582
14.41476967,0.660127258,4.510121155,7.770790558,9.009003648
14.42474667,0.088316345,4.974605255,7.792196045,9.245150968
14.43472267,-0.534538422,5.388344879,7.867938538,9.551149077
14.44469967,-1.07880661,5.672154694,8.057594147,9.912718396
14.45467667,-1.564247131,5.80133606,8.34035614,10.2792952
14.46465367,-2.10267746,5.909411316,8.71832016,10.74018161
14.47462967,-2.830314331,5.893244934,9.074878693,11.1845625
14.48460667,-3.30078598,5.780978394,9.549691315,11.64094083
14.49458367,-3.512296143,5.586532745,9.903256073,11.90042239
14.50456067,-3.595373383,4.973856812,10.02989273,11.75860151
14.51453767,-3.621119843,4.467609558,10.14934433,11.66538617
14.52451367,-3.816763,4.145928497,10.20293289,11.65573861
14.53449067,-4.022135925,3.728147278,10.11356873,11.50482211
14.54446767,-4.122577057,3.257376251,9.996362457,11.29306885
14.55444467,-4.187841339,2.866239624,9.72931778,10.97328434
14.56442167,-4.323758698,2.55548584,9.427245941,10.68168354
14.57439767,-4.48138092,2.360890503,9.102421417,10.41684475
14.58437467,-4.581073608,2.230062561,8.732241211,10.1099679
14.59435167,-4.584965515,2.098935242,8.328081665,9.735727099
14.60432867,-4.533322906,1.952240295,7.961194611,9.367116866
14.61430567,-4.384232941,1.837728424,7.725434875,9.070892363
14.62428167,-4.162244568,1.732197876,7.534881134,8.780616324
14.63425867,-3.87529129,1.671124878,7.328310699,8.456635185
14.64423567,-3.527265015,1.628463593,7.19718338,8.178810474
14.65421267,-3.188220062,1.582359467,7.147636414,7.984817778
14.66418867,-2.844085693,1.590891724,7.07548645,7.789882439
14.67416567,-2.543959808,1.626068573,6.995253296,7.619015631
14.68414267,-2.311942291,1.691482544,6.928641815,7.497484095
14.69411967,-2.144889679,1.713636475,6.925348663,7.449668168
14.70409667,-2.054028625,1.706301727,6.890321503,7.389656933
14.71407267,-1.951940918,1.790127411,6.884932709,7.376783032
14.72404967,-1.864373016,1.887874146,6.955885162,7.44474942
14.73402667,-1.784289551,1.978735199,6.994355164,7.484656728
14.74400367,-1.662891998,2.081421661,7.08716217,7.571353483
14.75398067,-1.527573395,2.201771393,7.245083771,7.724798806
14.76395667,-1.385668488,2.363285522,7.400610352,7.891402232
14.77393367,-1.280137939,2.495161285,7.522007904,8.0277759
14.78391067,-1.156644745,2.486629028,7.677534485,8.152649064
14.79388767,-1.072220306,2.457888794,8.004754028,8.441976117
14.80386467,-1.375339966,2.492616577,8.425678711,8.89363588
14.81384067,-1.955533447,2.624342651,8.826545105,9.413776283
14.82381767,-2.285746765,3.09017395,9.090146942,9.869376107
14.83379467,-2.581681366,3.695814514,9.178612976,10.22599921
14.84377167,-2.450853424,4.227957916,9.414971466,10.60773295
14.85374867,-2.251168671,3.589535522,9.597292328,10.49097449
14.86372467,-1.708846436,3.05514679,9.396559753,10.02743303
14.87370167,-1.332978058,3.298390961,9.548643494,10.18983837
14.88367867,-1.540596313,3.438499603,9.599537659,10.3125089
14.89365567,-1.665885773,3.634142761,9.799372101,10.5834712
14.90363167,-1.792372742,3.654350739,10.04980133,10.84275731
14.91360867,-1.981728973,3.420986023,10.35696259,11.08589505
14.92358567,-2.044448547,3.146157532,10.8251889,11.45699751
14.93356267,-2.054777069,2.804118805,11.42124939,11.93859827
14.94353967,-2.015259247,2.648592224,11.9453096,12.40027145
14.95351567,-1.883982239,2.922522583,12.37850876,12.857605
14.96349267,-1.999092865,3.290607147,12.84134628,13.40614195
14.97346967,-2.176623688,3.626808014,13.18009186,13.84219088
14.98344667,-2.221230927,3.754193115,13.30657883,14.00331649
14.99342367,-2.224823456,3.572920074,13.27993423,13.93098168
15.00339967,-2.398312683,3.332969055,13.29190933,13.91170155
15.01337667,-2.707419891,3.160677338,13.15808762,13.80055337
15.02335367,-3.252286835,2.879711609,13.01842804,13.72405105
15.03333067,-3.756737823,2.577939148,12.89209076,13.67350919
15.04330767,-3.926185455,1.834435272,12.73416916,13.45136235
15.05328367,-3.912264404,0.745000763,12.28689926,12.91621974
15.06326067,-4.058061218,-0.314196625,11.97060699,12.64365502
15.07323767,-4.258344727,-1.192570038,11.62617325,12.43879526
15.08321467,-4.222269745,-1.90374115,11.13055389,12.05574644
15.09319167,-4.135899353,-2.680026855,10.70124664,11.78154859
15.10316767,-3.993096313,-3.451672211,10.30726593,11.58009457
15.11314467,-3.809128876,-3.988156586,9.924811249,11.35415052
15.12312167,-3.623514862,-4.251758423,9.602830811,11.10953056
15.13309867,-3.378624115,-4.37734726,9.273066559,10.79657507
15.14307567,-3.185076599,-4.345014496,8.995843048,10.48565954
15.15305167,-3.073408813,-4.013453979,8.620124359,9.993007483
15.16302867,-3.012784882,-3.263214111,8.183931427,9.311400146
15.17300567,-3.181035004,-2.189047852,7.84428772,8.743212454
15.18297904,-3.559897156,-0.937500458,7.599995728,8.444626097
15.19295504,-4.030518494,0.599503326,7.299121399,8.359524912
15.20293204,-4.411775665,1.78084671,7.212002563,8.639916695
15.21290904,-4.674329681,2.37181778,7.090455322,8.817563962
15.22288604,-4.58436676,3.004252625,7.041357422,8.923153409
15.23286304,-4.380191345,3.084485779,7.077582092,8.876502521
15.24283904,-3.993246002,2.750979309,6.979985046,8.499064186
15.25281604,-3.618575134,2.393672333,6.786736908,8.055032656
15.26279304,-3.452270966,2.286046143,6.517297211,7.721356404
15.27277004,-3.504811707,2.348765717,6.268065491,7.555729646
15.28274704,-3.598816223,2.374811554,6.109694824,7.477939487
15.29272304,-3.603755951,2.355202332,5.993686066,7.379587226
15.30270004,-3.540587311,2.214494934,5.984105988,7.297209795
15.31267704,-3.411555634,2.034120026,5.941444702,7.146825958
15.32265404,-3.280578003,1.886377258,5.955665131,7.056242509
15.33263104,-3.169059906,1.74926239,5.974076843,6.985159535
15.34260704,-3.051703949,1.682351532,5.95806015,6.902295591
15.35258404,-2.917582855,1.673070831,5.976621552,6.857948738
15.36256104,-2.813100128,1.703906708,6.086044006,6.917858198
15.37253804,-2.748434601,1.78907959,6.153852997,6.973134535
15.38251504,-2.765199738,1.868115234,6.249803467,7.084929604
15.39249104,-2.760559387,1.916315002,6.365662537,7.198236649
15.40246804,-2.784958649,1.932331696,6.530020752,7.357382108
15.41244504,-2.757415924,1.988315277,6.784641266,7.588682186
15.42242204,-2.684068451,2.100881195,7.157515869,7.927670444
15.43239904,-2.580184479,2.324216766,7.635621643,8.388209189
15.44237504,-2.490371246,2.688409424,8.199499054,8.981162448
15.45235204,-2.39397171,3.141367493,8.9102211,9.74634959
15.46232904,-2.326611786,3.395988007,9.7011763,10.53843815
15.47230604,-2.303559723,3.3920961,10.35636383,11.13853559
15.48228204,-2.365830231,3.291654968,10.94359268,11.67023418
15.49225904,-2.797382813,2.991379395,11.44654678,12.15718448
15.50223604,-3.409459991,2.729573822,11.85998703,12.63860289
15.51221304,-3.905378723,2.601739655,12.19154755,13.06349355
15.52219004,-4.294868774,2.194137268,12.33105743,13.24066137
15.53216604,-4.409230957,1.717528381,12.38689133,13.25995091
15.54214304,-4.422553253,1.474882965,12.42850479,13.2741097
15.55212004,-4.480632477,1.576970673,12.45694565,13.33185654
15.56209704,-4.43228302,1.964814148,12.47386047,13.38293027
15.57207404,-4.44276123,2.249671783,12.47715363,13.43422916
15.58205004,-4.478237457,2.389930115,12.40350677,13.40199078
15.59202704,-4.648134155,2.402653656,12.13406708,13.21413938
15.60200404,-4.717589722,2.524949341,11.68934189,12.85580553
15.61198104,-5.060376892,2.510429535,11.37035522,12.69624546
15.62195804,-5.598507843,2.438878326,11.07442062,12.64650978
15.63193404,-6.222410431,2.35894455,10.7070845,12.60653281
15.64191104,-6.789580994,2.125280457,10.36759048,12.57386812
15.65188804,-6.984176331,1.541195068,9.991273041,12.28737312
15.66186504,-6.770271149,0.636775818,9.452992401,11.6447894
15.67184204,-6.41446106,-0.315843201,8.988358612,11.04697507
15.68181804,-6.031856689,-1.073417816,8.618926849,10.57456481
15.69179504,-5.609285431,-1.545835419,8.173303528,10.03277533
15.70177204,-5.224136353,-1.768871613,7.634424133,9.418329961
15.71174904,-4.775219879,-1.925895081,7.061565399,8.739422329
15.72172604,-4.389472046,-2.060614929,6.42733429,8.051349253
15.73170204,-4.21343811,-2.013462982,5.922284546,7.541919393
15.74167904,-4.303700409,-1.726210327,5.57425827,7.250792685
15.75165604,-4.59379715,-1.240620117,5.309608612,7.129800428
15.76163304,-4.95993576,-0.68093399,5.198240204,7.217086328
15.77160904,-5.261109467,-0.046403503,5.184169464,7.386273698
15.78158604,-5.391039276,0.669707336,5.503605194,7.733141828
15.79156304,-5.282514954,1.246308289,6.031707001,8.114168961
15.80154004,-4.864134979,1.529070282,6.287674713,8.09522812
15.81151704,-4.568200378,1.465602264,6.436465302,8.027735065
15.82149304,-4.180656281,1.320853271,6.55367157,7.884995329
15.83147004,-3.910168762,1.17355957,6.960525513,8.06942236
15.84144704,-3.720513153,1.10335556,7.487579498,8.433472497
15.85142404,-3.328179016,0.935853882,8.006999359,8.721504273
15.86140104,-2.848426666,0.561183014,8.454868011,8.939421343
15.87137704,-2.452200623,0.20597168,8.772806854,9.1114133
15.88135404,-2.246977386,0.019758911,9.012458496,9.288364007
15.89133104,-2.335593109,0.038470001,9.152866516,9.446239494
15.90130804,-2.605032806,0.19190094,9.145980835,9.511676368
15.91128504,-2.834056549,0.27961853,8.972790985,9.413874925
15.92126104,-2.874472504,0.239501953,8.614885254,9.08494366
15.93123804,-2.754721527,0.125738525,8.192763062,8.644400931
15.94121504,-2.637964325,0.033530273,8.00460434,8.428147524
15.95119204,-2.532134399,0.088166656,7.785010986,8.186933127
15.96116904,-2.581082611,0.247585144,7.627688141,8.056358496
15.97114504,-2.767594757,0.474363556,7.395820313,7.910926597
15.98112204,-2.927013245,0.706381073,7.633825378,8.206197089
15.99109904,-2.883453827,0.992436218,8.26191925,8.806732954
16.00107604,-2.789000244,1.146166534,8.166417847,8.705320243
16.01105304,-2.688409424,1.063837738,8.347690887,8.83420846
16.02102904,-2.495310974,0.997974701,8.428223419,8.846325812
16.03100604,-2.284698944,0.912502441,8.72415802,9.064405283
16.04098304,-2.002535706,0.912203064,9.153465271,9.414254625
16.05096004,-1.595681763,1.068927155,9.525292053,9.716995124
16.06093704,-0.838705902,1.400936737,9.960736542,10.09367742
16.07091304,-0.898132324,0.895587616,10.13662079,10.21566444
16.08089004,-0.426612854,1.319057007,10.44378204,10.53539241
16.09086704,-0.05269043,1.484912109,10.89314758,10.99401676
16.10084404,-0.10059082,1.284478912,10.95332245,11.02883844
16.11082104,-0.067659302,1.619781647,11.33936966,11.45467479
16.12079704,-0.017812958,1.919009399,11.77032349,11.92574649
16.13077404,0.053588562,1.981279907,12.20786362,12.36771102
16.14075104,0.198636932,2.029030609,12.52415588,12.68900715
16.15072804,0.283510437,1.872905273,12.4681723,12.61124391
16.16070404,0.298179932,1.637444916,12.39272919,12.50399431
16.17068104,0.099992065,1.466350708,12.55738678,12.64310664
16.18065804,-0.266595612,1.237776031,12.66486328,12.72799767
16.19063804,-0.796044617,1.014141083,12.83640656,12.90098843
16.20061504,-1.398392029,0.836310883,13.12710205,13.22783899
16.21059104,-1.776505737,0.580792236,13.00929703,13.14287265
16.22056804,-1.922302551,0.176183624,13.22844131,13.3685432
16.23054504,-2.206112366,-0.021854553,13.8962027,14.07024729
16.24052204,-2.031425629,-1.116977234,11.85938828,12.08384949
16.25049904,-1.727258148,-1.873204651,12.13586334,12.40046352
16.26047504,-1.377884674,-2.315085754,12.11341003,12.40938721
16.27045204,-1.182840271,-3.21067337,11.94066925,12.42123652
16.28042904,-1.090781708,-3.966900787,11.67257675,12.37639506
16.29040604,-0.94079361,-4.482428741,11.41990219,12.30412232
16.30038304,0.11346405,-4.191733246,11.29087051,12.04438702
16.31035904,-0.33111145,-4.792733459,10.98101486,11.9859341
16.32033604,-0.170196075,-5.758974152,9.693093109,11.27611653
16.33031304,1.54808075,-4.984784088,9.55612793,10.88871927
16.34029004,2.228266296,-3.811523895,8.697962494,9.754354752
16.35026704,2.713856506,-3.745511169,7.962691498,9.208600705
16.36024304,2.965932312,-3.063828735,7.206763458,8.373842639
16.37022004,2.954555969,-2.230661316,6.826554108,7.765764088
16.38019704,2.501747589,-1.295855255,6.753506012,7.317637959
16.39017404,1.585652618,-0.431851959,6.922803955,7.115195355
16.40015104,0.424966278,0.139659576,7.22292984,7.236768382
16.41012704,-0.658330994,0.537532196,7.495363312,7.543395239
16.42010404,-1.437011719,0.734522552,7.73426651,7.900848341
16.43008104,-1.922751617,0.831071777,7.969726868,8.240400502
16.44005804,-2.142045593,0.842298431,8.487500153,8.794059632
16.45003504,-2.307301941,0.914747772,8.862470398,9.203466048
16.46001104,-2.032323761,0.990340576,8.654253387,8.944675289
16.46998804,-1.737886047,0.735720062,8.484506378,8.691857132
16.47996504,-1.348994751,0.616567841,8.39424408,8.524275712
16.48994204,-0.966989136,0.386645966,8.380023651,8.444486928
16.49991904,-0.718356171,0.057929535,8.215964813,8.247512912
16.50989504,-0.542322235,-0.079185333,8.052055664,8.070686721
16.51987204,-0.53588562,-0.112715607,7.954608307,7.973435365
16.52984904,-0.599353638,-0.039966888,7.899672546,7.92247742
16.53982604,-0.675545197,0.032033386,7.911647644,7.940500985
16.54980304,-0.745150452,0.16735199,7.843389587,7.880483241
16.55977904,-0.7710466,0.419727173,7.718848572,7.768610367
16.56975604,-0.661025391,0.794547729,7.727081451,7.795899462
16.57973304,-0.472417603,1.231938171,7.783813477,7.894846565
16.58971004,-0.224832458,1.444346466,8.024063873,8.156119628
16.59968704,0.186362457,1.495989075,8.466843109,8.600008518
16.60966304,0.595761108,1.600322113,8.773405609,8.938042747
16.61964004,0.849932556,1.616039429,9.09852951,9.279935778
16.62961704,0.937350769,1.564097443,9.521699524,9.694729965
16.63959404,0.964594116,1.606908417,9.826914825,10.00404176
16.64957104,0.963246918,1.612596588,9.943073273,10.11894355
16.65954704,0.919837189,1.543889465,10.03109024,10.19080304
16.66952404,0.797391815,1.432071991,10.13542328,10.26710616
16.67950104,0.690514069,1.357676697,10.29229706,10.40439688
16.68947804,0.567919006,1.233884125,10.42327469,10.51140606
16.69945504,0.438138885,1.101858673,10.5823938,10.64862041
16.70943104,0.312849426,0.977467346,10.73642349,10.78536539
16.71940804,0.096399536,0.778531036,10.91604996,10.94420167
16.72938504,-0.1685495,0.558039551,11.08594666,11.10126256
16.73936204,-0.380508728,0.331859894,11.2100386,11.22140292
16.74933804,-0.51013916,0.029039612,11.30284561,11.31438925
16.75931504,-0.609382782,-0.330662384,11.39385635,11.41493091
16.76929204,-0.720601501,-0.628542938,11.67362457,11.71272144
16.77926904,-0.790805511,-0.806971893,11.97075668,12.02395911
16.78924604,-0.790506134,-0.855471039,12.09215424,12.14812433
16.79922204,-0.76760376,-0.827778625,12.15292786,12.2052484
16.80919904,-0.741707611,-0.79215271,12.20127731,12.24944097
16.81917604,-0.690214691,-0.791254578,12.19424194,12.23936341
16.82915304,-0.652193756,-0.862057343,12.23091568,12.27859104
16.83913004,-0.667462006,-0.98525116,12.30845444,12.3658512
16.84910604,-0.789608002,-1.130149841,12.40650055,12.48286727
16.85908304,-1.049317932,-1.216819611,12.55199799,12.65442103
16.86906004,-1.323547668,-1.303938446,12.699142,12.83433837
16.87903704,-1.453926544,-1.514400787,12.72863068,12.90059499
16.88901404,-1.400188293,-1.737436981,12.59046799,12.78667661
16.89899004,-1.213975525,-1.941612396,12.3448288,12.55541291
16.90896704,-0.942889252,-2.158062286,12.01910614,12.2476604
16.91894404,-0.518521729,-2.296524353,11.62961609,11.86553241
16.92892104,-0.118104401,-2.56012619,10.92802505,11.22452344
16.93889804,0.239801331,-2.590513,10.05189697,10.38310623
16.94887404,0.530496826,-2.385439453,9.239985352,9.557671137
16.95885104,0.585582275,-2.164498901,8.540939026,8.830379467
16.96882804,0.398321686,-1.875899048,8.098459167,8.32242142
16.97880504,0.116906891,-1.670077057,7.674241333,7.854731353
16.98878204,-0.152682495,-1.412013702,7.284451904,7.421612641
16.99875804,-0.47855484,-1.113235016,6.986421661,7.090725955
17.00873504,-0.818198547,-0.833167419,6.766678619,6.866699087
17.01871204,-1.155147858,-0.575553131,6.575077057,6.700542238
17.02868904,-1.497336273,-0.339643707,6.518045654,6.696438823
17.03866604,-1.850451965,-0.084424438,6.56774231,6.823967981
17.04864204,-2.220482483,0.192050629,6.807094574,7.16267844
17.05861904,-2.43842926,0.357756042,7.205116882,7.614961322
17.06859604,-2.450404358,0.359552307,7.531138916,7.927913518
17.07857304,-2.21150116,0.242944794,7.717351685,8.031642209
17.08855004,-1.831740875,0.056432648,7.978408813,8.186175326
17.09852604,-1.545386353,-0.178878021,8.311466217,8.455807886
17.10850304,-1.34914444,-0.464783478,8.579708405,8.697563493
17.11848004,-1.182241516,-0.699645081,8.751251678,8.85841996
17.12845704,-1.091230774,-0.896485748,8.889414368,9.000897683
17.13843404,-1.04722229,-1.039438477,9.03775589,9.157408935
17.14841004,-1.020428009,-1.153201904,9.212442627,9.340248771
17.15838704,-1.056802368,-1.251846771,9.370663605,9.512796013
17.16836404,-1.075064392,-1.274300079,9.486672363,9.632058797
17.17834104,-1.016386414,-1.246907043,9.557475128,9.691911542
17.18831442,-0.885558472,-1.175804901,9.603130188,9.715289001
17.19829042,-0.694256287,-1.088985443,9.621541901,9.707829296
17.20826742,-0.428409119,-0.929417267,9.697733459,9.751583722
17.21824442,-0.115709381,-0.655935974,9.764195251,9.786886613
17.22822142,0.241148529,-0.422271881,9.792037354,9.804104329
17.23819842,0.61776535,-0.238304443,9.899364166,9.921483454
17.24817442,0.975671082,-0.053738251,9.970765686,10.01853234
17.25815142,1.284029846,0.144150238,10.08542725,10.1678589
17.26812842,1.554367676,0.339194641,10.19290375,10.31631711
17.27810542,1.823957062,0.54172348,10.07165588,10.24980663
17.28808242,2.068099365,0.712817688,9.864037628,10.10368162
17.29805842,2.219883728,0.890049133,9.644444275,9.936567647
17.30803542,2.263892212,1.09287735,9.473350067,9.80122188
17.31801242,2.233206024,1.230590973,9.421857147,9.760786617
17.32798942,2.133513336,1.258133698,9.398805084,9.719687061
17.33796642,1.987117767,1.239871674,9.424102478,9.710799468
17.34794242,1.842967529,1.197360077,9.539961548,9.789845086
17.35791942,1.657054138,1.075513458,9.764494629,9.962324677
17.36789642,1.477277985,0.906514893,10.08153534,10.22944154
17.37787342,1.373244324,0.663121033,10.27223877,10.38481674
17.38785042,1.297501831,0.411344604,10.4190834,10.50761697
17.39782642,1.186582489,0.181273041,10.65648972,10.72388041
17.40780342,0.996328125,-0.075443115,10.87578369,10.92158561
17.41778042,0.708027649,-0.38499939,11.1238179,11.15297505
17.42775742,0.357456665,-0.646355896,11.48007706,11.5038133
17.43773442,0.043858795,-0.920136566,11.80834442,11.84422107
17.44771042,-0.21061203,-1.258283386,12.05458237,12.1219054
17.45768742,-0.453856201,-1.642384644,12.25756027,12.37542713
17.46766442,-0.64351181,-2.135159912,12.47236359,12.67015662
17.47764142,-0.771495667,-2.76729538,12.6977948,13.01872198
17.48761842,-0.811013489,-3.431763611,12.83505936,13.31065337
17.49759442,-0.763711853,-4.112098846,12.76261002,13.43044404
17.50757142,-0.597557373,-4.643344116,12.5412204,13.38655775
17.51754842,-0.268391876,-4.917723541,12.22403,13.17888267
17.52752542,0.185164948,-5.117557983,11.76328812,12.82959988
17.53750242,0.67629364,-5.391488342,11.20390137,12.45202495
17.54747842,1.154698792,-5.587430878,10.7018454,12.12774538
17.55745542,1.501677246,-5.479056244,10.16760635,11.64711599
17.56743242,1.747316437,-5.037624207,9.581575012,10.96527939
17.57740942,1.799108734,-4.347858582,8.985215149,10.14271945
17.58738642,1.653461609,-3.749852142,8.35203186,9.303319976
17.59736242,1.49658783,-3.182082825,7.753426666,8.513580405
17.60733942,1.37249588,-2.721790009,7.219936066,7.83705063
17.61731642,1.284329224,-2.366728363,6.801855469,7.315472816
17.62729342,1.177451477,-2.084714813,6.514752502,6.940780072
17.63727042,1.027912445,-1.775158539,6.36057312,6.68316409
17.64724642,0.902622986,-1.467997284,6.356830902,6.5862769
17.65722342,0.784518585,-1.188079376,6.39455246,6.551129916
17.66720042,0.617915039,-0.955612793,6.528523865,6.626963004
17.67717742,0.406704254,-0.743653564,6.801107025,6.853720577
17.68715442,0.133073273,-0.601000214,7.139104156,7.165592642
17.69713042,-0.022153931,-0.585432587,7.584577789,7.607170456
17.70710742,-0.016465759,-0.740959167,7.892337799,7.92706046
17.71708442,0.050145721,-1.06713089,8.161927185,8.231545317
17.72706142,0.062869263,-1.395098877,8.522527313,8.636186961
17.73703842,-0.076640625,-1.617835693,8.926088104,9.071841873
17.74701442,-0.227377167,-1.739832001,9.184301147,9.350406587
17.75699142,-0.359851685,-1.846560059,9.455686798,9.641021217
17.76696842,-0.424966278,-1.92948761,9.68246521,9.881986203
17.77694542,-0.404309235,-1.989213409,9.822723541,10.03027087
17.78692242,-0.286953278,-2.019749908,9.891730042,10.09990372
17.79689842,-0.128283234,-2.032174072,10.01776794,10.22261525
17.80687542,0.040116577,-1.988315277,10.10892838,10.3026909
17.81685242,0.229472809,-1.873953094,10.14335678,10.31756002
17.82682942,0.399369507,-1.732347565,10.00624191,10.16294255
17.83680642,0.517324219,-1.61588974,9.763596497,9.909921319
17.84678242,0.555943909,-1.476230164,9.508526917,9.638486045
17.85675942,0.518821106,-1.40063736,9.215286713,9.335548701
17.86673642,0.438587952,-1.369202728,8.969497833,9.083995095
17.87671342,0.396375732,-1.309476929,8.796906738,8.902663181
17.88669042,0.431851959,-1.266965332,8.634793854,8.737926651
17.89666642,0.482446747,-1.282083893,8.510851593,8.620387973
17.90664342,0.504450989,-1.27190506,8.518785095,8.627972692
17.91662042,0.459544373,-1.214873657,8.611143036,8.708552315
17.92659742,0.35805542,-1.198407898,8.729546814,8.818694504
17.93657442,0.257165222,-1.191671906,8.917855225,9.000797614
17.94655042,0.183218994,-1.240021362,9.195228424,9.280271976
17.95652742,0.085621948,-1.370998993,9.532028046,9.630499884
17.96650442,-0.026644592,-1.471290436,9.926308136,10.03478942
17.97648142,-0.09355545,-1.566941528,10.27164001,10.3908925
17.98645842,-0.180075531,-1.696422272,10.56293427,10.69980635
17.99643442,-0.258961487,-1.820963287,10.8518335,11.00660068
18.00641142,-0.336500244,-1.936073914,11.15734818,11.32907908
18.01638842,-0.41418869,-2.042502594,11.32724487,11.51737147
18.02636542,-0.470920715,-2.190993805,11.47408951,11.69089176
18.03634242,-0.555345154,-2.285447388,11.67527115,11.90981253
18.04631842,-0.587677917,-2.354902954,11.82540894,12.07191906
18.05629542,-0.540076904,-2.44202179,11.96821198,12.22674329
18.06627242,-0.466280365,-2.50743576,12.11849945,12.38396869
18.07624942,-0.440533905,-2.448757782,12.27462479,12.52425241
18.08622642,-0.42002655,-2.361040192,12.38928635,12.61924519
18.09620242,-0.370778961,-2.213896179,12.46847168,12.66892258
18.10617942,-0.248932343,-2.071691895,12.55783585,12.73000847
18.11615642,-0.131426697,-2.060914307,12.62953674,12.79725905
18.12613342,-0.036074982,-2.224973145,12.69659729,12.8901276
18.13611042,0.014669495,-2.507286072,12.73791138,12.98233742
18.14608642,0.091160431,-2.949466553,12.58807297,12.92931724
18.15606342,0.114212494,-3.443289642,12.29932343,12.77273051
18.16604042,0.121098175,-3.840563507,12.05473206,12.65231828
18.17601742,0.179925842,-4.148622894,11.74981613,12.46200724
18.18599529,0.260458374,-4.313430176,11.32754425,12.12381034
18.19597129,0.407003632,-4.217779083,10.76276871,11.56687091
18.20594829,0.577948151,-3.907773743,10.11326935,10.85739087
18.21592529,0.675994263,-3.558400269,9.408085785,10.081233
18.22590229,0.494571533,-3.191064148,8.786428528,9.361026529
18.23587929,0.104931793,-2.798580322,8.315058746,8.774010739
18.24585529,-0.280217285,-2.543510742,7.883506165,8.288403831
18.25583229,-0.605490875,-2.312391357,7.485184479,7.857592486
18.26580929,-0.941841431,-2.131567383,7.080575867,7.454206825
18.27578629,-1.290316772,-1.992356873,6.721173248,7.128013266
18.28576329,-1.70944519,-1.917662201,6.484964447,6.97527025
18.29573929,-2.178869019,-1.845811615,6.325845337,6.940519429
18.30571629,-2.616558838,-1.872755585,6.294410706,7.069172495
18.31569329,-2.949466553,-1.992356873,6.445147247,7.362659974
18.32567029,-3.175945587,-2.110311584,6.609355774,7.630440951
18.33564729,-3.285218353,-2.225721588,6.852749634,7.918754559
18.34562329,-3.197650452,-2.311942291,7.237150269,8.242960001
18.35560029,-2.914140015,-2.374811554,7.619155884,8.496086059
18.36557729,-2.526146851,-2.470911713,8.030799866,8.773857138
18.37555429,-2.030976563,-2.501298523,8.396339722,8.993324236
18.38553129,-1.492246857,-2.487078094,8.654852142,9.127914534
18.39550729,-0.946032715,-2.466271362,8.906927948,9.29036263
18.40548429,-0.360899506,-2.355801086,9.120982819,9.427214583
18.41546129,0.130827942,-2.118694153,9.281449127,9.521096511
18.42543829,0.422720947,-1.731599121,9.414372711,9.581625231
18.43541529,0.527353363,-1.366059265,9.43323349,9.546209382
18.44539129,0.493374023,-1.074765015,9.342971191,9.417518168
18.45536829,0.541573792,-0.620759125,9.377399597,9.413515139
18.46534529,0.552950134,-0.303868103,9.336534576,9.357829213
18.47532229,0.580941925,-0.100141754,9.283694458,9.302392417
18.48529929,0.685125275,0.114960938,9.249116364,9.275169334
18.49527529,0.781375122,0.381855927,9.17232605,9.213464397
18.50525229,0.825982361,0.536634064,9.156459045,9.209286901
18.51522929,0.889749756,0.615669708,9.123677216,9.187610666
18.52520629,0.963995361,0.644409943,9.092541962,9.166180805
18.53518329,1.004561005,0.60848465,9.1570578,9.232069321
18.54515929,0.997974701,0.539478149,9.248966675,9.318281748
18.55513629,0.937799835,0.496966553,9.305099945,9.365432679
18.56511329,0.835562439,0.355361023,9.389524384,9.433324663
18.57509029,0.702189789,0.221838684,9.489666138,9.518195538
18.58506729,0.546812897,0.12633728,9.624385986,9.640734986
18.59504329,0.42945694,0.006735992,9.771679688,9.781114586
18.60502029,0.357007599,-0.167501678,9.981543274,9.989330176
18.61499729,0.247136078,-0.316591644,10.12269974,10.13066417
18.62497429,0.141306152,-0.408799896,10.24694138,10.25606612
18.63495129,0.047301636,-0.531095581,10.57910065,10.59252899
18.64492729,-0.009430389,-0.738564148,10.98146393,11.00627621
18.65490429,-0.003143463,-0.875080261,11.38053406,11.41412856
18.66488129,0.074694672,-1.051563263,11.80774567,11.85471308
18.67485829,0.213605804,-1.230291595,12.05353455,12.11804192
18.68483529,0.332907715,-1.292562103,12.14529373,12.2184166
18.69481129,0.320034485,-1.202449493,12.24034607,12.30342955
18.70478829,0.347128143,-1.193168793,12.34033813,12.40274546
18.71476529,0.405207367,-1.333127747,12.50993546,12.58729152
18.72474229,0.464633789,-1.451381836,12.60992752,12.70167965
18.73471929,0.513282623,-1.456620941,12.63732056,12.73134221
18.74469529,0.604742432,-1.463806,12.65333725,12.75207375
18.75467229,0.775686951,-1.515897675,12.65707947,12.7711118
18.76464929,0.936452637,-1.690135345,12.66306702,12.80963572
18.77462629,1.062041473,-1.952090607,12.63387772,12.8278391
18.78460329,1.105151825,-2.204016724,12.42955261,12.67173344
18.79458029,1.071022797,-2.555785217,12.11999634,12.4327567
18.80455629,1.019829254,-3.006348267,11.65760788,12.0821357
18.81453329,0.894988861,-3.446133728,11.14716934,11.70197535
18.82451029,0.718805237,-3.787424011,10.63358734,11.31081082
18.83448729,0.656534729,-3.956123199,10.05219635,10.82259673
18.84446329,0.714015198,-3.993395691,9.436227264,10.27129066
18.85444029,0.80966629,-3.955524445,8.790769501,9.67364262
18.86441729,0.90561676,-3.916904755,8.249345398,9.176817753
18.87439429,0.955163727,-3.787873077,7.798932037,8.722594862
18.88437129,1.029559021,-3.587140503,7.318730621,8.215314155
18.89434829,1.043629761,-3.421734467,6.871460724,7.746896302
18.90432429,1.045126648,-3.172652435,6.488856354,7.298168946
18.91430129,1.056502991,-2.966830444,6.207740936,6.960914379
18.92427829,0.960851898,-2.67838028,6.011349335,6.650810335
18.93425529,0.646505585,-2.313738556,6.024372253,6.485708645
18.94423229,0.117805023,-1.753154297,6.285429382,6.526411765
18.95420829,-0.509390717,-1.116677856,6.522536316,6.637012003
18.96418529,-1.089135132,-0.578397217,6.924899597,7.033846253
18.97416229,-1.38072876,-0.254021759,7.356452179,7.489214086
18.98413929,-1.487905884,-0.255368958,7.670798492,7.817942615
18.99411629,-1.471290436,-0.409248962,7.837851105,7.985242025
19.00409229,-1.302142181,-0.670306091,8.063881073,8.195795414
19.01406929,-1.080453186,-0.945733337,8.400381317,8.52221784
19.02404629,-0.91848999,-1.1174263,8.760682068,8.879291396
19.03402329,-0.834963684,-1.242416382,9.10092453,9.223209318
19.04400029,-0.721649323,-1.323996735,9.350455627,9.471259976
19.05397629,-0.554147644,-1.354084167,9.557026062,9.668369599
19.06395329,-0.401165771,-1.376238098,9.742939453,9.847833999
19.07393029,-0.259260864,-1.345252533,9.923014984,10.01714265
19.08390729,-0.090561676,-1.26022934,10.02300705,10.10232893
19.09388429,0.084723816,-1.179696808,10.01327728,10.08288573
19.10386029,0.237406311,-1.10335556,9.915829926,9.97985162
19.11383729,0.342487793,-0.956959991,9.644444275,9.697854179
19.12381429,0.444425812,-0.811612244,9.540111237,9.584881384
19.13379129,0.533340912,-0.623154144,9.336534576,9.372494413
19.14376829,0.62839325,-0.501756592,8.965007172,9.000999463
19.15374429,0.742605743,-0.399369507,8.747958527,8.788500309
19.16372129,0.821641388,-0.336799622,8.625064087,8.670655054
19.17369829,0.97582077,-0.220192108,8.562344513,8.620583176
19.18367529,1.247505798,-0.137563934,8.723259888,8.813084456
19.19365171,1.469943237,-0.093256073,8.85289032,8.974580594
19.20362771,1.515149231,0.020507355,8.894204407,9.022359435
19.21360471,1.406026154,0.178878021,8.925189972,9.037030648
19.22358171,1.222657471,0.345930634,9.140292664,9.228191007
19.23355871,0.987945557,0.383203125,9.476044464,9.535108796
19.24353571,0.737965393,0.335452423,9.764794006,9.798383705
19.25351171,0.531095581,0.189056854,10.06566833,10.08144256
19.26348871,0.441731415,-0.066012726,10.32567764,10.33533275
19.27346571,0.421673126,-0.534089355,10.69960007,10.72121734
19.28344271,0.335751801,-1.090632019,11.16513199,11.2232963
19.29341971,0.226329346,-1.531914368,11.57318344,11.67632483
19.30339571,0.129031677,-1.950144653,11.96357162,12.12215985
19.31337271,0.047301636,-2.283052368,12.21789276,12.42945973
19.32334971,-0.015567627,-2.418071594,12.4032074,12.63672688
19.33332671,-0.038919067,-2.387684784,12.57190659,12.79669444
19.34330371,-0.086520081,-2.277813263,12.68911285,12.8922265
19.35327971,-0.258362732,-2.082619171,12.76171188,12.93311038
19.36325671,-0.533041534,-1.855092316,12.81874329,12.96324343
19.37323371,-0.781824188,-1.724414063,12.77009445,12.90969269
19.38321071,-0.991538086,-1.760189667,12.6208548,12.78152539
19.39318771,-1.205592957,-1.981728973,12.44676682,12.66107058
19.40316471,-1.438957672,-2.431094513,12.27148132,12.59246098
19.41314071,-1.53401001,-3.017574921,12.12703171,12.59062521
