"Time (s)","Acceleration x (m/s^2)","Acceleration y (m/s^2)","Acceleration z (m/s^2)","Absolute acceleration (m/s^2)"
1.866041683E-3,3.877386932E0,2.900218964E0,1.218556000E1,1.311233282E1
1.188704168E-2,3.788471832E0,2.067799988E0,1.222777222E1,1.296714036E1
2.190904168E-2,3.768114166E0,1.548978882E0,1.174352921E1,1.243014474E1
3.193004167E-2,3.785927124E0,1.436562653E0,1.068957092E1,1.143083037E1
4.195204168E-2,3.727847900E0,1.737137604E0,9.718989258E0,1.055335251E1
5.197304167E-2,3.487447815E0,2.262994080E0,9.026229858E0,9.937618423E0
6.199504167E-2,3.147804108E0,2.747386780E0,8.722212067E0,9.671286789E0
7.201604167E-2,2.741399231E0,3.080444183E0,8.634494476E0,9.568641543E0
8.204137502E-2,2.307751007E0,3.205134888E0,8.474776611E0,9.349889998E0
9.206237501E-2,1.910028076E0,3.180136871E0,8.432863770E0,9.212744929E0
1.020843750E-1,1.607507172E0,3.014730835E0,8.451125793E0,9.115602475E0
1.121053750E-1,1.632654877E0,2.720891876E0,8.768166504E0,9.324674707E0
1.221273750E-1,1.654210052E0,2.554887085E0,9.027127991E0,9.526431581E0
1.321493750E-1,1.582658844E0,2.526745605E0,9.000483398E0,9.481453147E0
1.421703750E-1,1.704206085E0,2.372715912E0,9.188043365E0,9.641277927E0
1.521923750E-1,1.614093475E0,2.165097656E0,9.667047272E0,1.003716835E1
1.622133750E-1,1.686991882E0,2.220033417E0,9.139544220E0,9.555404676E0
1.722353750E-1,2.014361115E0,1.996248779E0,9.112001495E0,9.543124810E0
1.822563750E-1,2.620450745E0,1.750759277E0,8.884175262E0,9.426584230E0
1.922783750E-1,3.289559326E0,1.340312805E0,9.068591766E0,9.739455611E0
2.022993750E-1,3.225492554E0,1.006806335E0,9.309740295E0,9.903975241E0
2.123213750E-1,2.760260010E0,9.144483948E-1,9.450298004E0,9.887536779E0
2.223423750E-1,2.787952423E0,8.641529846E-1,1.055799454E1,1.095402610E1
2.323643750E-1,2.927761688E0,8.086184692E-1,1.098834961E1,1.140041576E1
2.423853750E-1,3.113525391E0,6.780899048E-1,1.084569626E1,1.130411313E1
2.524073750E-1,3.105591888E0,5.177732849E-1,1.087563400E1,1.132219966E1
2.624283750E-1,3.056643677E0,5.721102905E-1,1.064271835E1,1.108773352E1
2.724503750E-1,3.123554535E0,8.708889771E-1,1.006581802E1,1.057524151E1
2.824713750E-1,3.158432007E0,1.003513184E0,9.568701782E0,1.012634116E1
2.924933750E-1,3.080444183E0,1.058598633E0,9.201066284E0,9.760603885E0
3.025143750E-1,2.796634369E0,1.143023071E0,8.592282257E0,9.107962446E0
3.125363750E-1,2.666854248E0,1.271605682E0,8.519533539E0,9.017291407E0
3.225573750E-1,2.729573822E0,1.301393738E0,8.971144409E0,9.467081436E0
3.325793750E-1,3.037932587E0,1.312919769E0,1.010907806E1,1.063702270E1
3.426003750E-1,3.171754303E0,9.482780457E-1,1.146286285E1,1.193132354E1
3.526223750E-1,2.720592499E0,-6.316864014E-2,1.182391205E1,1.213303383E1
3.626433750E-1,1.377884674E0,-1.887425079E0,1.131721573E1,1.155596432E1
3.726653750E-1,7.289840698E-2,-3.427272949E0,1.119222565E1,1.170544442E1
3.826873750E-1,5.179229736E-2,-3.902684326E0,1.075258987E1,1.143904788E1
3.927083750E-1,-2.035766602E-2,-3.655847626E0,9.717043304E0,1.038203096E1
4.027303750E-1,-1.848655701E-1,-2.701582031E0,8.808582458E0,9.215413484E0
4.127513750E-1,-2.221380615E-1,-1.842219086E0,8.277935944E0,8.483356645E0
4.227733750E-1,-6.249504089E-1,-1.923799438E0,7.380252686E0,7.652430790E0
4.327943750E-1,-1.041085052E0,-1.779200134E0,5.497617645E0,5.871389186E0
4.428163750E-1,-1.430275726E0,-6.481521606E-1,7.896978149E0,8.051587034E0
4.528373750E-1,-1.877695312E0,-8.062234497E-1,9.127419434E0,9.353369524E0
4.628593750E-1,-1.240470428E0,-1.412313080E0,9.670490112E0,9.851485884E0
4.728803750E-1,-2.356100464E-1,-1.686991882E0,9.865983582E0,1.001194715E1
4.829023750E-1,6.741979980E-1,-1.649569702E0,9.713750153E0,9.875857693E0
4.929233750E-1,1.370250549E0,-2.086810455E0,9.392967224E0,9.719063624E0
5.029453750E-1,1.960323486E0,-3.274740143E0,9.277557220E0,1.003194194E1
5.129663750E-1,2.152972870E0,-4.116290131E0,9.493108978E0,1.056873950E1
5.229883750E-1,2.752775574E0,-3.554059296E0,9.357191620E0,1.038104743E1
5.330093750E-1,3.929478607E0,-2.582429810E0,8.728199615E0,9.914192573E0
5.430313750E-1,5.124443665E0,-3.088976440E0,9.093440094E0,1.088541920E1
5.530523750E-1,6.334078217E0,-4.073628845E0,9.841135254E0,1.239205156E1
5.630743750E-1,8.437354431E0,-5.036277008E0,9.605076141E0,1.374083417E1
5.730953750E-1,9.771380310E0,-5.805826721E0,9.376351776E0,1.473443143E1
5.831173750E-1,9.480834503E0,-4.955894165E0,9.948611755E0,1.460896936E1
5.931383750E-1,1.002839584E1,-4.029470673E0,1.040755737E1,1.500408636E1
6.031603750E-1,9.532028046E0,-2.249222717E0,1.061622345E1,1.444377935E1
6.131813750E-1,8.580756226E0,-7.095245361E-2,1.049273026E1,1.355477037E1
6.232033750E-1,7.820786591E0,1.717378693E0,1.061562469E1,1.329682594E1
6.332253750E-1,7.065606995E0,3.248394928E0,1.112232101E1,1.357132626E1
6.432463750E-1,6.889273682E0,3.899840240E0,1.078731766E1,1.338047338E1
6.532683750E-1,5.553900604E0,4.253255310E0,1.006536896E1,1.225755461E1
6.632893750E-1,4.886887665E0,4.268822937E0,9.674980774E0,1.164945378E1
6.733113750E-1,4.303999786E0,4.397555237E0,9.305399323E0,1.115586674E1
6.833323750E-1,3.050805817E0,5.159770203E0,1.028735733E1,1.190631620E1
6.933543750E-1,2.408940582E0,5.267695770E0,1.057221497E1,1.205501318E1
7.033753750E-1,1.491199036E0,5.289101257E0,1.031894165E1,1.169097188E1
7.133973750E-1,8.945397949E-1,4.575684814E0,9.594298553E0,1.066712978E1
7.234183750E-1,6.182144165E-1,3.578757935E0,8.138725433E0,8.912269582E0
7.334403750E-1,9.635462952E-1,2.653382263E0,6.836732941E0,7.396605722E0
7.434613750E-1,1.376986542E0,1.489402771E0,6.806495819E0,7.102309335E0
7.534833750E-1,1.294508057E0,9.865983582E-1,7.581284637E0,7.754031479E0
7.635043750E-1,1.764979706E0,1.212778015E0,7.707322540E0,7.999300258E0
7.735263750E-1,2.708617401E0,1.013542328E0,7.190148010E0,7.749974496E0
7.835473750E-1,3.909420319E0,8.949888611E-1,5.895939331E0,7.130685303E0
7.935693750E-1,5.057383118E0,1.501677246E0,4.166884918E0,6.722729243E0
8.035903750E-1,6.000122681E0,1.423988800E0,3.181783447E0,6.939233545E0
8.136123750E-1,6.971752167E0,1.234931946E-1,2.904110870E0,7.553438872E0
8.236333750E-1,8.379574585E0,-1.877096558E0,2.791544952E0,9.029589411E0
8.336553750E-1,9.246721344E0,-1.375789032E0,2.373464355E0,9.645101561E0
8.436763750E-1,9.777816925E0,-7.283853149E-1,2.615960083E0,1.014788136E1
8.536983750E-1,1.004590942E1,9.833052063E-1,3.464994507E0,1.067208378E1
8.637193750E-1,1.051099228E1,2.553090820E0,2.928510132E0,1.120604315E1
8.737413750E-1,1.076007431E1,3.775299225E0,2.093696136E0,1.159377621E1
8.837623750E-1,1.157423126E1,6.055806885E0,2.907404022E0,1.338239980E1
8.937843750E-1,1.133787277E1,7.335495758E0,4.866529999E0,1.435409249E1
9.038063750E-1,1.145807281E1,6.300697632E0,5.726042633E0,1.427493564E1
9.138273750E-1,1.228330673E1,5.097948761E0,4.144281921E0,1.392995974E1
9.238493750E-1,1.132335297E1,5.926026764E0,2.878514099E-1,1.278354309E1
9.338703750E-1,1.059017761E1,-1.413809967E0,4.186793518E0,1.147518891E1
9.438923750E-1,1.161120438E1,-4.851860504E0,4.470603333E0,1.335465880E1
9.539133750E-1,1.142828476E1,-7.132218475E0,4.112398224E0,1.408495836E1
9.639353750E-1,1.155971146E1,-8.689430237E0,2.204316101E0,1.462847006E1
9.739563750E-1,1.232057922E1,-8.922495575E0,1.208137665E0,1.525998677E1
9.839783750E-1,1.269899231E1,-8.329428864E0,1.758543091E0,1.528843565E1
9.939993750E-1,1.133218460E1,-1.124611359E1,5.868695984E0,1.700985218E1
1.004021375E0,1.158381134E1,-1.192210785E1,7.879614258E0,1.839591426E1
1.014042375E0,8.249794464E0,-1.203991287E1,9.373507690E0,1.734592912E1
1.024064375E0,7.371870117E0,-1.191582092E1,6.836732941E0,1.559077210E1
1.034085375E0,8.967402191E0,-9.981393585E0,-1.286424866E0,1.347951813E1
1.044107375E0,8.346194000E0,-6.867419128E0,-1.476828918E0,1.090877736E1
1.054128375E0,7.473658447E0,-5.199587402E0,1.187779999E0,9.181617563E0
1.064150375E0,5.985902252E0,-5.377118225E0,1.854942627E0,8.257435336E0
1.074171375E0,7.226222992E0,-4.791835327E0,-1.157243500E0,8.747525196E0
1.084190292E0,8.541088715E0,-5.313201141E0,-2.831811218E0,1.044985443E1
1.094211292E0,9.083111572E0,-5.748196564E0,-3.458557892E0,1.129186886E1
1.104233292E0,8.074808350E0,-6.038892059E0,-1.241967316E0,1.015939122E1
1.114254292E0,7.924969940E0,-5.606890411E0,-5.665718079E-1,9.724370018E0
1.124276292E0,8.127199402E0,-4.897964630E0,-1.447190552E0,9.598738882E0
1.134297292E0,7.033423920E0,-5.862259369E0,-9.395960999E-1,9.204236947E0
1.144319292E0,6.840026093E0,-6.925797729E0,-2.280956726E0,9.997769487E0
1.154340292E0,7.650440826E0,-7.557484131E0,-4.678371277E0,1.172740248E1
1.164362292E0,4.551884308E0,-6.720275116E0,-3.521576843E0,8.847782313E0
1.174383292E0,3.978875885E0,-7.209158478E0,-3.105142822E0,8.800302905E0
1.184405292E0,2.943928070E0,-8.859776001E0,-1.988015900E0,9.545394203E0
1.194427292E0,2.066153412E0,-1.060394897E1,-5.575904846E-1,1.081774611E1
1.204448292E0,8.999285889E-1,-1.142918289E1,5.763015747E-2,1.146470297E1
1.214470292E0,-8.312214661E-1,-1.237880814E1,8.126600647E-1,1.243327135E1
1.224491292E0,-1.977537689E0,-1.334998856E1,2.205064545E0,1.367461734E1
1.234513292E0,-2.247576141E0,-1.379306717E1,2.678979034E0,1.422944936E1
1.244534292E0,-2.063309326E0,-1.376208160E1,3.715124359E0,1.440327339E1
1.254556292E0,-1.722168732E0,-1.302396652E1,6.574927368E0,1.469078756E1
1.264577292E0,-7.027885437E-1,-1.210278214E1,9.817783813E0,1.560000404E1
1.274599292E0,1.265019379E0,-9.664502563E0,1.125958557E1,1.489231853E1
1.284620292E0,2.578687592E0,-7.520660706E0,1.735281464E1,1.908743416E1
1.294642292E0,4.514611816E0,-5.392835541E0,2.187101898E1,2.297402591E1
1.304663292E0,5.461542664E0,-3.116519165E0,2.394884811E1,2.476062330E1
1.314685292E0,6.364465027E0,-7.722441101E-1,2.330219284E1,2.416805675E1
1.324706292E0,8.202043762E0,2.000140686E0,1.916853882E1,2.094533278E1
1.334728292E0,8.365803223E0,3.290906525E0,1.649599640E1,1.878655441E1
1.344749292E0,7.546856232E0,2.482737122E0,1.513158371E1,1.709046074E1
1.354771292E0,7.317084045E0,1.931283875E0,1.261322067E1,1.470927979E1
1.364792292E0,6.977440338E0,5.679190063E-1,1.079540085E1,1.286654130E1
1.374814292E0,6.061345367E0,-1.845661926E-1,9.683363342E0,1.142547583E1
1.384835292E0,5.387746124E0,-9.113049316E-1,8.556955719E0,1.015282109E1
1.394857292E0,5.123994598E0,-8.554710388E-1,7.744145966E0,9.325178179E0
1.404878292E0,5.352120209E0,-3.124003601E-1,7.983947296E0,9.616974532E0
1.414900292E0,4.592749329E0,-3.400927734E-1,1.043854294E1,1.140930270E1
1.424921292E0,4.470453644E0,-1.225351868E0,1.149175278E1,1.239140125E1
1.434943292E0,4.499493256E0,-3.574566650E-1,1.328592178E1,1.403171167E1
1.444964292E0,3.394191742E0,5.878276062E-1,1.213451614E1,1.261398275E1
1.454986292E0,2.511477356E0,5.282514954E-1,1.022164398E1,1.053890762E1
1.465007292E0,1.677711182E0,-1.184037781E-1,8.005053406E0,8.179829723E0
1.475029292E0,3.246898041E0,-5.270539856E-1,4.138593750E0,5.286595409E0
1.485050292E0,6.892716522E0,1.344803467E0,4.167932739E0,8.166376231E0
1.495072292E0,7.800578613E0,3.272943878E0,8.372838593E0,1.190233651E1
1.505093292E0,5.863606567E0,4.050876160E0,1.198348022E1,1.394257071E1
1.515115292E0,3.554807739E0,4.229305115E0,1.232941086E1,1.351066438E1
1.525137292E0,1.231788483E0,3.961661682E0,1.073582474E1,1.150956120E1
1.535158292E0,1.301094360E0,3.411405945E0,6.907835083E0,7.813368197E0
1.545180292E0,2.159409485E0,3.916605377E0,4.398453369E0,6.272897181E0
1.555201292E0,3.414399719E0,4.703369293E0,2.566413116E0,6.353446658E0
1.565223292E0,5.943390656E0,4.699776764E0,1.172960815E0,7.667309254E0
1.575244292E0,9.233698425E0,2.943029938E0,2.536475372E0,1.001780011E1
1.585266292E0,1.347782272E1,1.283880157E0,6.406677246E0,1.497816968E1
1.595287292E0,1.671903259E1,4.231700134E-1,8.955726471E0,1.897129833E1
1.605309292E0,1.697395248E1,1.151106262E0,8.955127716E0,1.922587894E1
1.615330292E0,1.476843887E1,2.071242828E0,6.683152313E0,1.634201207E1
1.625352292E0,1.263732056E1,1.931433563E0,4.497996368E0,1.355227943E1
1.635373292E0,1.171733368E1,1.538350983E0,3.012036438E0,1.219568759E1
1.645395292E0,1.081231567E1,6.343807983E-1,2.589315491E0,1.113611979E1
1.655416292E0,9.496402130E0,-1.601669312E-1,1.856289825E0,9.677454148E0
1.665438292E0,8.338709564E0,-1.264869690E-1,1.321152649E0,8.443667478E0
1.675459292E0,7.173382874E0,4.578977966E-1,1.412013702E0,7.325358349E0
1.685481292E0,6.921007690E0,1.497336273E0,2.080523529E0,7.380443179E0
1.695502292E0,7.252418518E0,2.495460663E0,2.497556305E0,8.066144418E0
1.705524292E0,7.628885651E0,2.102527771E0,2.310744781E0,8.243789222E0
1.715545292E0,8.012238464E0,7.878117371E-1,1.624871063E0,8.213210001E0
1.725567292E0,8.854836273E0,1.930984497E-2,1.204694824E0,8.936430379E0
1.735588292E0,9.924811249E0,-4.305047607E-1,1.206341400E0,1.000712108E1
1.745610292E0,1.063358734E1,-1.278940430E0,1.417851562E0,1.080366472E1
1.755631292E0,1.099852844E1,-2.288740540E0,1.694027252E0,1.136114825E1
1.765653292E0,1.118638779E1,-3.099454651E0,2.122735748E0,1.180033465E1
1.775674292E0,1.096529755E1,-3.760929108E0,2.932701416E0,1.195755308E1
1.785696292E0,1.014694931E1,-4.229604492E0,6.136489105E0,1.258994174E1
1.795717292E0,9.420060883E0,-4.024830322E0,5.338348846E0,1.155139708E1
1.805739292E0,8.561745758E0,-3.598067780E0,3.837270355E0,1.004859323E1
1.815760292E0,7.853718109E0,-3.188519440E0,3.813769226E0,9.294750135E0
1.825782292E0,7.468269653E0,-2.450404358E0,3.996838531E0,8.817837115E0
1.835803292E0,7.528145142E0,-1.433269501E0,4.280199280E0,8.777661227E0
1.845825292E0,7.893235931E0,-7.740403748E-1,4.491110687E0,9.114405476E0
1.855846292E0,8.386310577E0,-2.595602417E-1,4.365372162E0,9.458015158E0
1.865868292E0,8.819060669E0,3.032693481E-1,3.964954834E0,9.674123744E0
1.875889292E0,9.162296906E0,7.779322815E-1,3.607049103E0,9.877432179E0
1.885911292E0,9.454040222E0,1.094374237E0,3.376827850E0,1.009848988E1
1.895933292E0,9.660760345E0,1.284478912E0,3.244952087E0,1.027180075E1
1.905954292E0,9.753417664E0,1.350940704E0,3.163222046E0,1.034215503E1
1.915976292E0,9.677226105E0,1.324595490E0,3.037782898E0,1.022894830E1
1.925997292E0,9.489067383E0,1.217568054E0,2.969524841E0,1.001713280E1
1.936019292E0,9.222771149E0,1.079555054E0,2.935096436E0,9.738569600E0
1.946040292E0,8.945397949E0,9.894424438E-1,2.890040131E0,9.452590797E0
1.956062292E0,8.714128876E0,8.556207275E-1,2.855312347E0,9.209828310E0
1.966083292E0,8.557255096E0,6.828799438E-1,2.800526276E0,9.029722433E0
1.976105292E0,8.485105133E0,4.556524658E-1,2.753374329E0,8.932284057E0
1.986126292E0,8.515941010E0,2.360591125E-1,2.678829346E0,8.930459218E0
1.996148292E0,8.601413269E0,4.939727783E-2,2.595003662E0,8.984475183E0
2.006169292E0,8.731343079E0,-5.777984619E-2,2.508184204E0,9.084639699E0
2.016191292E0,8.876391449E0,-1.344204712E-1,2.434687042E0,9.205221074E0
2.026212292E0,8.996441803E0,-1.820214844E-1,2.367776184E0,9.304593543E0
2.036234292E0,9.068591766E0,-2.399510193E-1,2.283501434E0,9.354748095E0
2.046255292E0,9.092991028E0,-3.264710999E-1,2.205663300E0,9.362372552E0
2.056277292E0,9.108408966E0,-4.270619202E-1,2.103425903E0,9.357878836E0
2.066298292E0,9.115743713E0,-5.481600952E-1,2.016606445E0,9.352217090E0
2.076320292E0,9.134604492E0,-7.403604126E-1,1.949246521E0,9.369562144E0
2.086341125E0,9.171876984E0,-1.026415558E0,1.937271423E0,9.430263881E0
2.096363125E0,9.292825470E0,-1.256487122E0,1.876497803E0,9.563294888E0
2.106384125E0,9.502988434E0,-1.477277985E0,1.768272858E0,9.778339753E0
2.116406125E0,9.791887665E0,-1.695823517E0,1.776505737E0,1.009518965E1
2.126427125E0,1.008108627E1,-1.791324921E0,1.768871613E0,1.039067140E1
2.136449125E0,1.028136978E1,-1.791175232E0,1.662592621E0,1.056783268E1
2.146470125E0,1.025966492E1,-1.639540558E0,1.454974365E0,1.049122337E1
2.156492125E0,1.012524445E1,-1.187630310E0,1.492246857E0,1.030329275E1
2.166513125E0,1.005983047E1,-8.390052795E-1,1.776356049E0,1.024985658E1
2.176535125E0,9.948162689E0,-6.448590088E-1,1.936073914E0,1.015530237E1
2.186556125E0,9.822873230E0,-3.417393494E-1,1.870959320E0,1.000530425E1
2.196578125E0,9.770931244E0,7.035369873E-3,1.684896240E0,9.915141058E0
2.206599125E0,9.697883148E0,3.426374817E-1,1.644180908E0,9.842239017E0
2.216621125E0,9.571994934E0,6.032455444E-1,1.722917175E0,9.744507981E0
2.226642125E0,9.400751038E0,7.903564453E-1,1.784139862E0,9.601142559E0
2.236664125E0,9.188193054E0,8.746311951E-1,1.852098541E0,9.413720855E0
2.246685125E0,8.914711761E0,8.675958252E-1,1.843117218E0,9.144500500E0
2.256707125E0,8.600365448E0,8.065228271E-1,1.816772003E0,8.827084763E0
2.266728125E0,8.290509796E0,7.333250427E-1,1.795815582E0,8.514415535E0
2.276750125E0,8.010891266E0,6.854246521E-1,1.740879822E0,8.226472414E0
2.286771125E0,7.771539001E0,6.812333679E-1,1.580862579E0,7.959900995E0
2.296793125E0,7.583979034E0,6.218069458E-1,1.336420898E0,7.725891708E0
2.306814125E0,7.387437744E0,5.733078003E-1,1.110390930E0,7.492388556E0
2.316836125E0,7.282206573E0,6.644682312E-1,1.069226532E0,7.390216234E0
2.326857125E0,7.284451904E0,6.661148071E-1,8.108638000E-1,7.359650031E0
2.336879125E0,7.217840424E0,5.719606018E-1,7.271878052E-1,7.276892291E0
2.346901125E0,7.161108398E0,4.355941772E-1,6.233038330E-1,7.201369554E0
2.356922125E0,7.156617737E0,2.408491516E-1,4.644841003E-1,7.175718168E0
2.366944125E0,7.115303650E0,4.176315308E-2,3.854484558E-1,7.125858594E0
2.376965125E0,7.038962402E0,-7.289840698E-2,5.315446472E-1,7.059379972E0
2.386987125E0,6.913223877E0,-2.412982178E-1,6.376739502E-1,6.946763079E0
2.397008125E0,6.698719940E0,-3.950285339E-1,7.818241882E-1,6.755749066E0
2.407030125E0,6.375991058E0,-4.598437500E-1,8.964857483E-1,6.455106889E0
2.417051125E0,5.911956024E0,-4.989125061E-1,1.030606842E0,6.021817681E0
2.427073125E0,5.198689270E0,-6.815327454E-1,4.336482239E-1,5.261074775E0
2.437094125E0,4.504432983E0,-8.358618164E-1,-5.849835205E-1,4.618526518E0
2.447116125E0,3.984414368E0,-7.102729797E-1,-2.243534546E0,4.627471536E0
2.457137125E0,3.648662567E0,-6.228547668E-1,-3.976630554E0,5.432704405E0
2.467159125E0,3.518732758E0,-6.104306030E-1,-5.471422119E0,6.533801784E0
2.477180125E0,4.591252441E0,2.095642090E-3,-7.152127075E0,8.498972001E0
2.487202125E0,5.654940491E0,5.174739075E-1,-8.399483185E0,1.013890768E1
2.497223125E0,5.782475281E0,9.925859070E-1,-8.114475861E0,1.001333939E1
2.507245125E0,5.844446411E0,1.509461060E0,-7.414381714E0,9.560809733E0
2.517266125E0,5.714516602E0,1.753603363E0,-7.438032532E0,9.542282363E0
2.527288125E0,5.981411591E0,1.560504913E0,-7.427105255E0,9.663040550E0
2.537309125E0,6.645730133E0,1.382225647E0,-7.114854584E0,9.833485267E0
2.547331125E0,7.464527435E0,1.252445526E0,-6.570586395E0,1.002299333E1
2.557352125E0,8.359216919E0,1.004710693E0,-5.978866882E0,1.032631591E1
2.567374125E0,9.222322083E0,6.939569092E-1,-5.611680450E0,1.081775200E1
2.577395125E0,9.904453583E0,1.332229614E-1,-5.726491699E0,1.144153208E1
2.587417125E0,1.109328140E1,-3.040177917E-1,-6.416706390E0,1.281902648E1
2.597438125E0,1.066936295E1,-1.000968475E0,-7.581883392E0,1.312715504E1
2.607460125E0,9.668843536E0,-2.349364471E0,-9.113049316E0,1.349272829E1
2.617481125E0,8.275091858E0,-3.456761627E0,-9.981243896E0,1.341832985E1
2.627503125E0,6.839277649E0,-4.015100555E0,-1.042267593E1,1.309690516E1
2.637524125E0,5.593568115E0,-4.139342194E0,-1.091021210E1,1.294043608E1
2.647546125E0,4.570595398E0,-3.995042267E0,-1.157902130E1,1.307380738E1
2.657567125E0,3.814367981E0,-3.640279999E0,-1.235455856E1,1.343265271E1
2.667589125E0,3.503314819E0,-3.173101501E0,-1.346345261E1,1.426906948E1
2.677610125E0,3.572770386E0,-2.455493774E0,-1.479628098E1,1.541830304E1
2.687632125E0,4.021237793E0,-1.326840820E0,-1.546389267E1,1.603317924E1
2.697653125E0,4.854704590E0,-4.379891968E-1,-1.552736069E1,1.627448682E1
2.707675125E0,6.011049957E0,-3.231779480E-1,-1.508967087E1,1.624608668E1
2.717696125E0,7.328161011E0,-8.282276917E-1,-1.457908264E1,1.633822376E1
2.727718125E0,8.493038635E0,-1.467248840E0,-1.470946152E1,1.704854195E1
2.737739125E0,9.183852081E0,-2.373164978E0,-1.510538818E1,1.783669822E1
2.747761125E0,9.426347809E0,-3.289858704E0,-1.545940201E1,1.840305175E1
2.757782125E0,9.312434692E0,-3.772155762E0,-1.619721771E1,1.906044230E1
2.767804125E0,9.061107330E0,-3.695066071E0,-1.725282257E1,1.983474391E1
2.777825125E0,8.967701569E0,-3.273392944E0,-1.822475143E1,2.057368070E1
2.787847125E0,9.089997253E0,-2.753973083E0,-1.909159882E1,2.132373239E1
2.797868125E0,9.605525208E0,-2.348915405E0,-2.002311172E1,2.233178276E1
2.807890125E0,1.056188644E1,-2.033820648E0,-2.109727798E1,2.368089969E1
2.817912125E0,1.199605408E1,-1.656904449E0,-2.190978836E1,2.503376663E1
2.827933125E0,1.405008270E1,-1.066083069E0,-2.276585815E1,2.677359996E1
2.837955125E0,1.687006851E1,-3.661386108E-1,-2.280357971E1,2.836787826E1
2.847976125E0,2.153646469E1,6.819818115E-1,-1.975786331E1,2.923452707E1
2.857998125E0,2.713257751E1,1.790127411E0,-1.245005997E1,2.990627546E1
2.868019125E0,3.375959656E1,3.263663177E0,-6.544839935E0,3.454268066E1
2.878041125E0,4.109778671E1,3.654799805E0,-2.763702850E0,4.135243267E1
2.888062125E0,4.603721512E1,3.718567200E0,5.803731079E0,4.655036211E1
2.898084125E0,4.635575272E1,3.613635406E0,1.523935959E1,4.893007512E1
2.908105125E0,3.789070587E1,3.384461975E0,1.619242767E1,4.134434530E1
2.918127125E0,2.642140640E1,3.146756287E0,1.019589752E1,2.849472087E1
2.928148125E0,1.678863785E1,2.846929779E0,1.128233826E1,2.042680901E1
2.938170125E0,1.052506302E1,1.525926819E0,9.545050964E0,1.429032547E1
2.948191125E0,6.621181183E0,1.007405090E-1,6.212081909E0,9.079655861E0
2.958213125E0,3.949686584E0,1.517843628E-1,3.550167389E0,5.312885383E0
2.968234125E0,1.738784180E0,7.171586609E-1,3.491489410E0,3.965877617E0
2.978256125E0,2.589614868E-2,5.496569824E-1,2.321971436E0,2.386282623E0
2.988277125E0,-3.421884155E-1,2.680924988E-1,6.731501770E-1,8.013099653E-1
2.998299125E0,-4.595443726E-2,1.173559570E-1,-2.541714478E-1,2.837029358E-1
3.008320125E0,-1.089733887E-1,1.070274353E-1,9.385482788E-2,1.792729764E-1
3.018342125E0,-3.103047180E-1,1.652563477E-1,-1.880090332E-1,3.986804172E-1
3.028363125E0,-8.876541138E-1,5.336402893E-1,-3.646417236E-1,1.098027946E0
3.038385125E0,-1.585353241E0,8.973838806E-1,1.998344421E-1,1.832641954E0
3.048406125E0,-2.532583466E0,1.163530426E0,5.628295898E-1,2.843335930E0
3.058428125E0,-3.639381866E0,1.319955139E0,-8.687933350E-1,3.967642096E0
3.068449125E0,-5.352718964E0,7.557783508E-1,-3.390000458E0,6.380823170E0
3.078471125E0,-7.079378357E0,3.356021118E-1,-6.141279144E0,9.377928141E0
3.088492750E0,-7.544461212E0,-3.043171692E-1,-1.042522064E1,1.287232416E1
3.098514750E0,-7.308701477E0,7.574249268E-2,-1.466425552E1,1.638484801E1
3.108535750E0,-7.256160736E0,1.385219421E0,-1.506467285E1,1.677841082E1
3.118557750E0,-7.134164429E0,1.749711456E0,-1.405681870E1,1.586038915E1
3.128578750E0,-6.874454498E0,7.274871826E-1,-1.290915527E1,1.464355326E1
3.138600750E0,-6.673572235E0,3.951782227E-2,-1.134430939E1,1.316174318E1
3.148621750E0,-6.183042297E0,4.891827393E-1,-9.449250183E0,1.130299256E1
3.158643750E0,-5.467679901E0,6.280938721E-1,-7.442373505E0,9.256292389E0
3.168664750E0,-4.777614899E0,4.909790039E-1,-5.553301849E0,7.342058699E0
3.178686750E0,-4.038601685E0,1.782792664E-1,-3.922742615E0,5.632938548E0
3.188707750E0,-3.342698822E0,-1.483415222E-1,-2.813848572E0,4.371885681E0
3.198729750E0,-2.877316589E0,-2.830613708E-1,-1.827250214E0,3.420221899E0
3.208750750E0,-2.582130432E0,-4.760101318E-1,-8.848100281E-1,2.770716875E0
3.218772750E0,-2.537223816E0,-7.030879211E-1,-1.712438965E-1,2.638401370E0
3.228793750E0,-2.841690674E0,-7.390132141E-1,3.725752258E-1,2.959756530E0
3.238815750E0,-3.127596130E0,-7.487429810E-1,9.994715881E-1,3.367702045E0
3.248836750E0,-3.406316528E0,-7.653584290E-1,1.732497253E0,3.897475151E0
3.258858750E0,-3.442092133E0,-5.165757751E-1,2.373763733E0,4.213027776E0
3.268879750E0,-3.215762787E0,-1.769320679E-1,2.267335052E0,3.938685504E0
3.278901750E0,-2.776576080E0,1.990859985E-2,1.713935852E0,3.263027304E0
3.288922750E0,-2.484832764E0,6.990463257E-2,1.656156006E0,2.986994014E0
3.298944750E0,-2.297721863E0,4.819976807E-2,1.811083832E0,2.926067946E0
3.308965750E0,-2.178120575E0,1.428030396E-1,2.185605011E0,3.088927194E0
3.318987750E0,-2.171683960E0,2.760260010E-1,2.689606934E0,3.467908164E0
3.329008750E0,-2.268233185E0,4.176315308E-1,3.230881348E0,3.969621161E0
3.339030750E0,-2.431992645E0,4.996609497E-1,3.597768402E0,4.371291201E0
3.349051750E0,-2.604733429E0,5.161267090E-1,3.489693146E0,4.385086233E0
3.359073750E0,-2.658321991E0,3.555107117E-1,2.858006744E0,3.919345127E0
3.369094750E0,-2.531685333E0,9.879455566E-2,2.329605560E0,3.441838616E0
3.379116750E0,-2.221380615E0,-1.320254517E-1,2.002685394E0,2.993778774E0
3.389138750E0,-1.874102783E0,-2.856060791E-1,1.684896240E0,2.536278261E0
3.399159750E0,-1.477128296E0,-2.148033142E-1,1.337169342E0,2.004013552E0
3.409180750E0,-1.225501556E0,-1.172062683E-1,1.089434509E0,1.643915729E0
3.419202750E0,-1.086440735E0,-5.493576050E-2,8.726852417E-1,1.394614979E0
3.429224750E0,-9.807604980E-1,5.987548828E-3,6.421646118E-1,1.172306442E0
3.439245750E0,-8.807684326E-1,2.035766602E-2,3.444337463E-1,9.459397825E-1
3.449267750E0,-8.104147339E-1,5.792953491E-2,4.445755005E-2,8.136979450E-1
3.459288750E0,-7.864645386E-1,1.194515991E-1,-1.818717957E-1,8.160101133E-1
3.469310750E0,-7.905061340E-1,1.601669312E-1,-3.408412170E-1,8.756289905E-1
3.479331750E0,-7.914042664E-1,1.636097717E-1,-4.432283020E-1,9.217050493E-1
3.489353750E0,-7.408094788E-1,1.278341675E-1,-5.450166321E-1,9.285383069E-1
3.499374750E0,-6.515950012E-1,3.188369751E-2,-6.258485413E-1,9.040348513E-1
3.509396750E0,-5.493576050E-1,-5.164260864E-2,-6.887178040E-1,8.824924649E-1
3.519417750E0,-4.552033997E-1,-7.589218140E-2,-6.750961304E-1,8.177557970E-1
3.529439750E0,-3.833528137E-1,-8.637039185E-2,-5.608836365E-1,6.848428127E-1
3.539460750E0,-3.305126953E-1,-4.026626587E-2,-5.049000549E-1,6.048008593E-1
3.549482750E0,1.844165039E-1,2.233355713E-1,-8.523275757E-1,9.001947126E-1
3.559503750E0,3.506757660E0,4.073030090E-1,-5.412145386E0,6.461777055E0
3.569525750E0,1.411414948E0,-1.465901642E0,-2.170022415E1,2.179542814E1
3.579546750E0,1.674118652E0,-2.213896179E-1,-2.558060486E1,2.563628350E1
3.589568750E0,5.357044968E1,-1.145927032E1,-5.650973740E1,7.870488152E1
3.599589750E0,8.233014359E1,-1.116034195E1,-5.108591629E1,9.753243880E1
3.609611750E0,7.884613861E1,3.357667694E0,-2.589944183E1,8.305882610E1
3.619632750E0,7.970744751E1,8.397686920E0,-3.316608078E1,8.673976740E1
3.629654750E0,7.357949066E1,8.712033234E0,-1.430560135E1,7.546185261E1
3.639675750E0,4.360851562E1,5.815107422E0,3.015030212E0,4.409771555E1
3.649697750E0,2.296359695E1,3.652404785E0,5.924529877E0,2.399514326E1
3.659718750E0,9.849667511E0,4.458328857E0,1.265273849E1,1.664284945E1
3.669740750E0,1.306034088E0,2.150278473E0,1.390054367E1,1.412637734E1
3.679761750E0,-1.700912933E0,3.288661194E-1,7.799081726E0,7.989176021E0
3.689783750E0,-1.874402161E0,-2.245330811E-3,3.897295532E0,4.324615702E0
3.699804750E0,-2.535577240E0,-1.354682922E-1,4.978048096E0,5.588243592E0
3.709826750E0,-5.113965454E0,-4.429289246E-1,1.161015656E1,1.269427288E1
3.719847750E0,-6.332880707E0,-2.026785278E-1,1.426743073E1,1.561108696E1
3.729869750E0,-5.828130341E0,2.225871277E-1,1.375145370E1,1.493717267E1
3.739890750E0,-4.625830536E0,6.325845337E-1,1.003857468E1,1.107119925E1
3.749912750E0,-2.750829620E0,8.617579651E-1,3.926335144E0,4.870913472E0
3.759933750E0,-2.219734039E0,9.401948547E-1,1.176403656E0,2.682370432E0
3.769955750E0,-2.007774811E0,8.256829834E-1,5.162763977E-1,2.231468888E0
3.779976750E0,-1.624272308E0,5.810916138E-1,5.882766724E-2,1.726090580E0
3.789998750E0,-1.299597473E0,4.029620361E-1,-2.417472839E-1,1.381945637E0
3.800019750E0,-1.035546570E0,2.688409424E-1,-4.983137512E-1,1.180232496E0
3.810041750E0,-8.078700256E-1,1.772314453E-1,-7.276368713E-1,1.101599011E0
3.820062750E0,-6.221063232E-1,1.306782532E-1,-9.135502625E-1,1.112954251E0
3.830084750E0,-4.793032837E-1,1.369651794E-1,-1.307381287E0,1.399191526E0
3.840105750E0,-2.731819153E-1,2.157014465E-1,-1.826950836E0,1.859813117E0
3.850127750E0,-4.385879517E-2,4.179309082E-1,-2.070644073E0,2.112855110E0
3.860148750E0,1.151106262E-1,5.992039490E-1,-2.053579559E0,2.142308296E0
3.870170750E0,2.686912537E-1,6.378236389E-1,-1.944606171E0,2.064099596E0
3.880191750E0,3.008743286E-1,6.713539124E-1,-1.797162781E0,1.941915420E0
3.890213750E0,2.420466614E-1,7.577243042E-1,-1.657353516E0,1.838356163E0
3.900234750E0,2.170486450E-1,8.228388977E-1,-1.536704407E0,1.756597393E0
3.910256750E0,2.173480225E-1,9.042695618E-1,-1.377884674E0,1.662380756E0
3.920277750E0,4.076023865E-1,1.241518250E0,-1.249601440E0,1.808040660E0
3.930299750E0,1.424437866E0,2.425256653E0,-1.225501556E0,3.068020067E0
3.940320750E0,3.411106567E0,4.429888000E0,-1.244512024E0,5.727858753E0
3.950342750E0,5.377118225E0,6.167774048E0,-1.215023346E0,8.272310369E0
3.960363750E0,8.418493652E0,7.709717560E0,-1.067579956E0,1.146518675E1
3.970385750E0,1.412836990E1,6.286776581E0,6.523434448E-1,1.547772425E1
3.980406750E0,2.063488953E1,7.803273010E-1,1.343905334E0,2.069332400E1
3.990428750E0,2.781620590E1,-5.133574677E0,-2.802172852E-1,2.828733677E1
4.000449750E0,3.375256119E1,-7.597750397E0,-7.542515259E0,3.540975479E1
4.010471750E0,3.670172836E1,-4.919669495E0,-1.516182083E1,4.001375793E1
4.020492750E0,3.353221939E1,-1.785936127E0,-1.818253922E1,3.818643787E1
4.030514750E0,2.371982437E1,-5.251080322E-1,-1.345746506E1,2.727653153E1
4.040535750E0,1.570878342E1,1.683998108E-1,-7.268734589E0,1.730978733E1
4.050557750E0,1.076097244E1,3.393443298E-1,-3.940555573E0,1.146480094E1
4.060578750E0,7.376959534E0,2.692900085E-1,-2.226170654E0,7.710245447E0
4.070600750E0,5.010680237E0,2.059716797E-1,-1.376687164E0,5.200443089E0
4.080621750E0,3.333867188E0,1.642085266E-1,-8.702902222E-1,3.449498505E0
4.090642500E0,2.155667267E0,1.818717957E-1,-5.530998230E-1,2.232912477E0
4.100663500E0,1.374591522E0,1.954934692E-1,-3.089575195E-1,1.422383316E0
4.110685500E0,9.223818970E-1,2.107617188E-1,-7.304809570E-2,9.489704370E-1
4.120706500E0,8.666976929E-1,2.116598511E-1,2.965333557E-1,9.401578668E-1
4.130728500E0,1.411564636E0,1.820214844E-1,9.518705750E-1,1.712221988E0
4.140749500E0,2.688110046E0,9.131011963E-2,1.553170166E0,3.105899342E0
4.150771500E0,4.667294312E0,2.829116821E-2,1.929637299E0,5.050538257E0
4.160793500E0,6.645281067E0,-4.969665527E-2,2.098186798E0,6.968831900E0
4.170814500E0,8.400980072E0,-2.475851440E-1,1.971849518E0,8.632841658E0
4.180835500E0,1.000085312E1,-5.125341797E-1,1.511407013E0,1.012739382E1
4.190857500E0,1.147453857E1,-7.970924377E-1,7.472460938E-1,1.152643781E1
4.200879500E0,1.279224838E1,-9.870474243E-1,-2.966830444E-1,1.283370181E1
4.210900500E0,1.388527542E1,-1.065933380E0,-1.510359192E0,1.400779327E1
4.220922500E0,1.462758179E1,-9.592053223E-1,-2.762355652E0,1.491699811E1
4.230943500E0,1.487441849E1,-6.451583862E-1,-3.853586426E0,1.537903388E1
4.240965500E0,1.432775528E1,-8.771759033E-2,-4.541705475E0,1.503061390E1
4.250986500E0,1.269629791E1,5.351371765E-1,-4.310885468E0,1.341887052E1
4.261008500E0,1.076875626E1,8.315208435E-1,-3.177891541E0,1.125862038E1
4.271029500E0,9.401050415E0,8.560697937E-1,-2.027833099E0,9.655294479E0
4.281051500E0,8.556656342E0,8.161029053E-1,-1.124311981E0,8.668706312E0
4.291072500E0,8.085136871E0,7.828720093E-1,-5.282514954E-1,8.140109118E0
4.301094500E0,7.922125854E0,7.226971436E-1,-2.291734314E-1,7.958322039E0
4.311115500E0,8.027207336E0,5.957611084E-1,-2.339634705E-1,8.052684511E0
4.321137500E0,8.354277191E0,4.022135925E-1,-6.532415771E-1,8.389424755E0
4.331158500E0,8.761430511E0,2.719844055E-1,-1.251846771E0,8.854589796E0
4.341180500E0,9.068741455E0,2.356100464E-1,-1.850302277E0,9.258574522E0
4.351201500E0,9.191336517E0,2.574645996E-1,-2.324516144E0,9.484214796E0
4.361223500E0,9.121581573E0,3.418890381E-1,-2.605182495E0,9.492476724E0
4.371244500E0,8.900191956E0,4.614903259E-1,-2.682421875E0,9.307082104E0
4.381266500E0,8.628357239E0,5.927673340E-1,-2.561623077E0,9.020079520E0
4.391287500E0,8.474327545E0,7.014413452E-1,-2.324216766E0,8.815227217E0
4.401309500E0,8.550519104E0,7.442523193E-1,-2.054328003E0,8.825279146E0
4.411330500E0,8.811725922E0,6.709048462E-1,-1.901645508E0,9.039517834E0
4.421352500E0,9.173074493E0,4.884342957E-1,-1.867666168E0,9.374008782E0
4.431373500E0,9.510772247E0,3.393443298E-1,-1.838177490E0,9.692720970E0
4.441395500E0,9.798923035E0,2.695893860E-1,-1.745520172E0,9.956827394E0
4.451416500E0,1.000459534E1,2.454895020E-1,-1.578617249E0,1.013134865E1
4.461438500E0,1.015263748E1,2.426454163E-1,-1.376986542E0,1.024846411E1
4.471459500E0,1.023646317E1,2.475851440E-1,-1.200653229E0,1.030960934E1
4.481481500E0,1.026580215E1,2.567161560E-1,-1.049018555E0,1.032245305E1
4.491502500E0,1.023077499E1,2.532733154E-1,-9.315129089E-1,1.027621626E1
4.501524500E0,1.016566040E1,2.260299683E-1,-8.496331787E-1,1.020360806E1
4.511545500E0,1.011566437E1,1.821711731E-1,-7.810757446E-1,1.014741008E1
4.521567500E0,1.005803421E1,1.496887207E-1,-7.497908020E-1,1.008705334E1
4.531588500E0,1.000803818E1,1.598675537E-1,-7.798782349E-1,1.003965118E1
4.541610500E0,9.943073273E0,1.902543640E-1,-8.955876160E-1,9.985137956E0
4.551631500E0,9.875863037E0,2.261796570E-1,-1.016386414E0,9.930602666E0
4.561653500E0,9.789043579E0,2.573149109E-1,-1.110989685E0,9.855246483E0
4.571674500E0,9.692793732E0,2.718347168E-1,-1.219514008E0,9.772991295E0
4.581696500E0,9.610464935E0,2.665956116E-1,-1.302291870E0,9.701962359E0
4.591717500E0,9.567354584E0,2.612068176E-1,-1.359772339E0,9.667030751E0
4.601739500E0,9.552535400E0,2.591111755E-1,-1.435514832E0,9.663269323E0
4.611760500E0,9.530231781E0,2.472857666E-1,-1.498982849E0,9.650565664E0
4.621782500E0,9.472302246E0,2.327659607E-1,-1.595083008E0,9.608484773E0
4.631803500E0,9.420809326E0,2.405497742E-1,-1.688937836E0,9.574028597E0
4.641825500E0,9.401349792E0,2.543211365E-1,-1.765129395E0,9.568998847E0
4.651846500E0,9.421408081E0,2.725831604E-1,-1.831740875E0,9.601692895E0
4.661868500E0,9.468859406E0,2.818638611E-1,-1.910028076E0,9.663692510E0
4.671889500E0,9.514963531E0,2.749781799E-1,-1.994901581E0,9.725727547E0
4.681911500E0,9.527687073E0,2.297721863E-1,-2.044149170E0,9.747213040E0
4.691932500E0,9.472451935E0,1.933978271E-1,-2.065704346E0,9.697003806E0
4.701954500E0,9.388925629E0,1.954934692E-1,-2.002086639E0,9.602004638E0
4.711975500E0,9.323661346E0,2.457888794E-1,-1.873354340E0,9.513176628E0
4.721997500E0,9.295819244E0,3.083587646E-1,-1.738185425E0,9.461956939E0
4.732018500E0,9.335037689E0,3.573069763E-1,-1.651815033E0,9.486785011E0
4.742040500E0,9.444609833E0,3.715274048E-1,-1.606758728E0,9.587510684E0
4.752061500E0,9.579030304E0,3.653901672E-1,-1.576671295E0,9.714794075E0
4.762083500E0,9.689500580E0,3.769161987E-1,-1.533560944E0,9.817346713E0
4.772104500E0,9.760003967E0,3.954776001E-1,-1.485810242E0,9.880370036E0
4.782126500E0,9.815987549E0,4.056564331E-1,-1.388512573E0,9.922002614E0
4.792147500E0,9.829160156E0,4.025129700E-1,-1.308578796E0,9.924050813E0
4.802169500E0,9.805509338E0,4.170327759E-1,-1.242865448E0,9.892757161E0
4.812190500E0,9.755064240E0,4.474195862E-1,-1.189725952E0,9.837525626E0
4.822212500E0,9.703421631E0,4.845423889E-1,-1.173260193E0,9.786097902E0
4.832233500E0,9.673184509E0,5.022056580E-1,-1.171014862E0,9.756740484E0
4.842255500E0,9.651629333E0,4.905299377E-1,-1.215622101E0,9.740241553E0
4.852276500E0,9.678423615E0,4.620890808E-1,-1.284628601E0,9.774235552E0
4.862298500E0,9.711804199E0,4.306544495E-1,-1.381626892E0,9.819037475E0
4.872319500E0,9.746082916E0,4.087998962E-1,-1.489253082E0,9.867680797E0
4.882341500E0,9.749226379E0,4.076023865E-1,-1.554816742E0,9.880840541E0
4.892362500E0,9.715097351E0,4.087998962E-1,-1.580563202E0,9.851315340E0
4.902384500E0,9.636211395E0,4.303550720E-1,-1.580263824E0,9.774405828E0
4.912405500E0,9.539662170E0,4.349954224E-1,-1.582808533E0,9.679858377E0
4.922427500E0,9.475894775E0,4.355941772E-1,-1.582658844E0,9.617023089E0
4.932448500E0,9.484127655E0,4.409829712E-1,-1.576820984E0,9.624422464E0
4.942470500E0,9.548942871E0,4.215234375E-1,-1.605411530E0,9.692127638E0
4.952491500E0,9.606423340E0,4.186793518E-1,-1.628014526E0,9.752389096E0
4.962513500E0,9.653874664E0,4.102967834E-1,-1.652264099E0,9.802837147E0
4.972534500E0,9.642797699E0,4.032614136E-1,-1.644031219E0,9.790250553E0
4.982556500E0,9.604776764E0,3.878434753E-1,-1.619332581E0,9.748045817E0
4.992577500E0,9.596244507E0,3.968247986E-1,-1.563498688E0,9.730873892E0
5.002599500E0,9.606423340E0,4.245172119E-1,-1.515598297E0,9.734506790E0
5.012620500E0,9.614805908E0,4.340972900E-1,-1.506616974E0,9.741808242E0
5.022642500E0,9.616153107E0,4.126918030E-1,-1.519190826E0,9.744160090E0
5.032663500E0,9.585616608E0,3.882925415E-1,-1.513652344E0,9.712155284E0
5.042685500E0,9.552685089E0,3.745211792E-1,-1.496438141E0,9.676434552E0
5.052706500E0,9.539362793E0,3.820056152E-1,-1.487007751E0,9.662119997E0
5.062728500E0,9.547895050E0,3.802093506E-1,-1.492845612E0,9.671372553E0
5.072749500E0,9.580976257E0,3.767665100E-1,-1.515149231E0,9.707354750E0
5.082771500E0,9.668843536E0,3.670367432E-1,-1.537153473E0,9.797147141E0
5.092798417E0,9.749376068E0,3.514691162E-1,-1.530567169E0,9.875044310E0
5.102820417E0,9.781409454E0,3.559597778E-1,-1.487905884E0,9.900330408E0
5.112841417E0,9.747130737E0,3.695814514E-1,-1.411115570E0,9.855678323E0
5.122863417E0,9.711355133E0,3.637435913E-1,-1.328337708E0,9.808527361E0
5.132884417E0,9.650282135E0,3.570075989E-1,-1.259181519E0,9.738631208E0
5.142906417E0,9.592502289E0,3.399430847E-1,-1.240620117E0,9.678367617E0
5.152927417E0,9.598040771E0,3.113525391E-1,-1.275347900E0,9.687406223E0
5.162949417E0,9.648186493E0,2.903961182E-1,-1.328337708E0,9.743526752E0
5.172970417E0,9.674980774E0,2.483335876E-1,-1.399140472E0,9.778778891E0
5.182992417E0,9.680968323E0,2.098635864E-1,-1.479972382E0,9.795688268E0
5.193013417E0,9.655221863E0,1.965412903E-1,-1.572030945E0,9.784335388E0
5.203035417E0,9.575437775E0,2.371069336E-1,-1.632205811E0,9.716446062E0
5.213056417E0,9.488917694E0,2.942880249E-1,-1.685195618E0,9.641890308E0
5.223078417E0,9.408235474E0,3.585044861E-1,-1.689835968E0,9.565509176E0
5.233099417E0,9.355694733E0,4.113446045E-1,-1.706301727E0,9.518912433E0
5.243121417E0,9.351054382E0,4.234693909E-1,-1.704056396E0,9.514481204E0
5.253142417E0,9.374405823E0,4.287084961E-1,-1.707199860E0,9.538228707E0
5.263164417E0,9.415270844E0,4.318519592E-1,-1.741777954E0,9.584759340E0
5.273185417E0,9.483977966E0,4.275109863E-1,-1.787882080E0,9.660493054E0
5.283207417E0,9.539063416E0,4.038601685E-1,-1.811383209E0,9.717918656E0
5.293228417E0,9.559271393E0,3.863465881E-1,-1.832489319E0,9.740993294E0
5.303250417E0,9.546098785E0,3.746708679E-1,-1.813478851E0,9.724046782E0
5.313271417E0,9.499395905E0,3.962260437E-1,-1.792971497E0,9.675239760E0
5.323293417E0,9.490713959E0,4.095483398E-1,-1.775757294E0,9.664093090E0
5.333314417E0,9.506880341E0,4.120930481E-1,-1.767823792E0,9.678625700E0
5.343336417E0,9.518855438E0,4.373904419E-1,-1.770368500E0,9.691961818E0
5.353357417E0,9.503437500E0,4.652325439E-1,-1.796863403E0,9.682999728E0
5.363379417E0,9.445507965E0,4.788542175E-1,-1.797162781E0,9.626874682E0
5.373400417E0,9.357940063E0,4.935237122E-1,-1.783840485E0,9.539218771E0
5.383422417E0,9.251361694E0,4.849914551E-1,-1.770069122E0,9.431651743E0
5.393443417E0,9.145082703E0,4.581971741E-1,-1.774410095E0,9.326897312E0
5.403465417E0,9.049132233E0,4.300556946E-1,-1.787283325E0,9.233965765E0
5.413486417E0,8.974736938E0,4.067042542E-1,-1.829794922E0,9.168394675E0
5.423508417E0,8.899593201E0,3.945794678E-1,-1.885179749E0,9.105622152E0
5.433529417E0,8.797655182E0,3.644920349E-1,-1.930685120E0,9.014384958E0
5.443551417E0,8.628955994E0,3.544628906E-1,-1.977388000E0,8.859717196E0
5.453572417E0,8.424780579E0,3.376977539E-1,-1.999392242E0,8.665364211E0
5.463594417E0,8.161029053E0,3.296145630E-1,-1.997296600E0,8.408343158E0
5.473615417E0,7.818690948E0,3.391946411E-1,-1.970202942E0,8.070234246E0
5.483637417E0,7.439230042E0,3.625460815E-1,-1.951940918E0,7.699588081E0
5.493658417E0,6.997348938E0,4.159849548E-1,-1.952539673E0,7.276561469E0
5.503680417E0,6.530619507E0,4.864883423E-1,-1.985770569E0,6.843167892E0
5.513701417E0,6.031707001E0,5.749543762E-1,-2.035167847E0,6.391711042E0
5.523723417E0,5.489534454E0,6.593788147E-1,-2.093097382E0,5.911922327E0
5.533744417E0,4.943170624E0,7.554789734E-1,-2.179767151E0,5.455004045E0
5.543766417E0,4.416865082E0,8.053253174E-1,-2.311792603E0,5.049913965E0
5.553787417E0,3.895349579E0,8.536747742E-1,-2.573448486E0,4.746066379E0
5.563809417E0,3.482508087E0,9.596543884E-1,-2.864443359E0,4.610188161E0
5.573830417E0,3.115171967E0,1.032702484E0,-3.096161499E0,4.511871766E0
5.583852417E0,2.738405457E0,1.044827271E0,-3.305276642E0,4.417621775E0
5.593873417E0,2.385589142E0,1.042432251E0,-3.565435638E0,4.414751617E0
5.603895417E0,2.130070496E0,9.906399536E-1,-3.755540314E0,4.429746142E0
5.613916417E0,1.934876404E0,8.918453979E-1,-3.914210358E0,4.456475921E0
5.623938417E0,1.787133636E0,7.731422424E-1,-4.162094879E0,4.595065761E0
5.633959417E0,2.043101349E0,8.418493652E-1,-4.334386597E0,4.865170156E0
5.643981417E0,2.689307556E0,5.444178772E-1,-4.385131073E0,5.172827127E0
5.654002417E0,3.566932526E0,1.525328064E-1,-4.293222198E0,5.583729107E0
5.664024417E0,3.554208984E0,-4.375401306E-1,-3.970044250E0,5.346502990E0
5.674045417E0,2.774031372E0,-1.051563263E0,-5.780379639E0,6.497216644E0
5.684067417E0,2.935695190E0,-1.557511139E0,-7.165000305E0,7.898188183E0
5.694088417E0,2.615511017E0,-1.971550140E0,-8.552315369E0,9.158056890E0
5.704110417E0,3.093616791E0,-2.366129608E0,-9.802216187E0,1.054762894E1
5.714131417E0,5.860912170E0,-1.521585846E0,-1.065783691E1,1.225785473E1
5.724153417E0,8.804540863E0,-2.032772827E-1,-1.114701965E1,1.420624189E1
5.734174417E0,1.144549896E1,3.354524231E-1,-1.087398743E1,1.579099672E1
5.744196417E0,1.397898056E1,6.394702148E-1,-9.954299927E0,1.717291200E1
5.754217417E0,1.515703079E1,1.154998169E0,-9.014703827E0,1.767298753E1
5.764239417E0,1.450438797E1,2.019151154E0,-9.062454529E0,1.722156566E1
5.774260417E0,1.180999100E1,2.576741638E0,-1.065259781E1,1.611190010E1
5.784282417E0,7.788603516E0,2.291434937E0,-1.314431625E1,1.544946823E1
5.794303417E0,3.813769226E0,1.364562378E0,-1.566297867E1,1.617824981E1
5.804325417E0,8.607101440E-1,-2.281256104E-1,-1.768781799E1,1.771021650E1
5.814346417E0,-1.087039490E0,-1.689835968E0,-1.877994690E1,1.888712805E1
5.824368417E0,-1.991758118E0,-2.817890167E0,-1.895493301E1,1.926647583E1
5.834389417E0,-1.768572235E0,-3.156635742E0,-1.821996140E1,1.857576890E1
5.844411417E0,-6.825805664E-1,-2.510728912E0,-1.702484665E1,1.722251664E1
5.854432417E0,9.551637268E-1,-4.435276794E-1,-1.546898209E1,1.550478834E1
5.864454417E0,2.377206573E0,1.269060974E0,-1.461021790E1,1.485665150E1
5.874475417E0,3.446283417E0,1.932032318E0,-1.540865753E1,1.590711618E1
5.884497417E0,4.157604218E0,1.739532623E0,-1.671109909E1,1.730816222E1
5.894518417E0,4.116739197E0,7.677534485E-1,-1.731224899E1,1.781153986E1
5.904540417E0,3.462449799E0,-5.743556213E-1,-1.789887909E1,1.823974549E1
5.914561417E0,2.896027679E0,-1.421743469E0,-1.863864075E1,1.891579392E1
5.924583417E0,2.609972534E0,-1.549877014E0,-1.927032715E1,1.950793643E1
5.934604417E0,2.632874908E0,-1.334175568E0,-1.992356873E1,2.014101898E1
5.944626417E0,2.874023438E0,-1.018631744E0,-2.068668182E1,2.091019910E1
5.954647417E0,3.296744385E0,-5.785469055E-1,-2.141641434E1,2.167639368E1
5.964669417E0,3.872147827E0,-5.254074097E-2,-2.233849686E1,2.267167244E1
5.974690417E0,4.637655945E0,3.278182983E-1,-2.366997803E1,2.412225481E1
5.984712417E0,5.759872284E0,7.259902954E-1,-2.541879135E1,2.607332247E1
5.994733417E0,7.232809296E0,1.352587280E0,-2.707434860E1,2.805643197E1
6.004755417E0,9.162745972E0,2.104024658E0,-2.809612381E1,2.962726796E1
6.014776417E0,1.306842407E1,2.593806152E0,-2.774854660E1,3.078138035E1
6.024798417E0,1.998015106E1,3.947890320E0,-2.182566330E1,2.985216664E1
6.034819417E0,2.828652786E1,5.886209564E0,-1.185444855E1,3.122984265E1
6.044841417E0,3.921185852E1,6.357579346E0,-7.829767914E0,4.048819494E1
6.054862417E0,4.742632645E1,3.639381866E0,-1.457668762E0,4.758809030E1
6.064884417E0,5.171775238E1,4.023632813E-1,3.969295807E0,5.187140943E1
6.074905417E0,4.411386475E1,-1.054557037E0,6.835834808E0,4.465281392E1
6.084927417E0,2.934797058E1,-3.121009827E-1,5.189408569E0,2.980487788E1
6.094942917E0,1.978076569E1,3.159928894E-1,2.872825928E0,1.999078967E1
6.104964917E0,1.462728241E1,5.204676819E-1,2.136806488E0,1.479169427E1
6.114985917E0,1.036250107E1,4.489164734E-1,1.846260681E0,1.053525666E1
6.125007917E0,6.536607056E0,4.869374084E-1,1.046024780E0,6.637658298E0
6.135028917E0,3.650009766E0,2.342628479E-1,3.941304016E-1,3.678693945E0
6.145050917E0,1.499880981E0,-1.347198486E-2,-2.381547546E-1,1.518730437E0
6.155071917E0,-2.185455322E-2,4.535568237E-2,-1.597178650E-1,1.674650884E-1
6.165093917E0,-4.930746460E-1,1.475930786E-1,7.768844604E-2,5.205207182E-1
6.175114917E0,-7.622149658E-1,6.137237549E-2,2.918930054E-1,8.184984723E-1
6.185136917E0,-1.358874207E0,-8.083190918E-3,3.367996216E-1,1.400013726E0
6.195157917E0,-2.122735748E0,-7.753875732E-2,-4.375401306E-1,2.168746339E0
6.205179917E0,-3.222498779E0,3.592529297E-3,-1.628014526E0,3.610393689E0
6.215200917E0,-5.036277008E0,2.772235107E-1,-4.219126282E0,6.575862343E0
6.225222917E0,-6.997348938E0,7.601193237E-1,-6.753206635E0,9.754305377E0
6.235243917E0,-8.060438232E0,6.740483093E-1,-1.114357681E1,1.376968808E1
6.245265917E0,-7.838000793E0,1.675016785E-1,-1.517229904E1,1.707808454E1
6.255286917E0,-7.640860748E0,4.002676392E-1,-1.655587189E1,1.823841718E1
6.265308917E0,-9.160051575E0,9.169931030E-1,-1.887859177E1,2.100353895E1
6.275329917E0,-1.037687119E1,2.694396973E-1,-1.840587479E1,2.113121577E1
6.285351917E0,-1.018841309E1,1.154100037E-1,-1.520897278E1,1.830655439E1
6.295372917E0,-9.466614075E0,2.658471680E-1,-1.123788071E1,1.469617023E1
6.305394917E0,-8.346643066E0,5.287005615E-1,-8.335865479E0,1.180815938E1
6.315415917E0,-7.075187073E0,7.180567932E-1,-6.503974915E0,9.637197070E0
6.325437917E0,-5.741161194E0,5.251080322E-1,-4.891977081E0,7.560959599E0
6.335458917E0,-4.637805634E0,2.160008240E-1,-3.619772644E0,5.887159879E0
6.345480917E0,-3.862717438E0,1.062789917E-2,-2.750829620E0,4.742126375E0
6.355501917E0,-3.186274109E0,-3.832031250E-2,-2.125130768E0,3.830142546E0
6.365523917E0,-2.894081726E0,-2.844085693E-2,-1.567540283E0,3.291458713E0
6.375544917E0,-2.813848572E0,1.661544800E-1,-1.217418365E0,3.070416677E0
6.385566917E0,-3.343447266E0,5.387297058E-1,-7.776329041E-1,3.474706066E0
6.395587917E0,-4.541406097E0,5.339396667E-1,6.358776855E-1,4.616687269E0
6.405609917E0,-4.860542450E0,-2.559677124E-1,1.507964172E0,5.095522380E0
6.415630917E0,-3.796555023E0,-6.643185425E-1,2.304906921E0,4.490851265E0
6.425652917E0,-3.250340881E0,-1.984872437E-1,3.409909058E0,4.715039004E0
6.435673917E0,-3.068319397E0,3.778143311E-1,4.340074768E0,5.328562337E0
6.445695917E0,-2.817441101E0,6.773414612E-1,4.400549011E0,5.268927539E0
6.455716917E0,-2.795885925E0,1.057850189E0,4.496050415E0,5.399119786E0
6.465738917E0,-3.153492279E0,1.246757355E0,5.818849640E0,6.734829514E0
6.475759917E0,-3.815116425E0,9.889933777E-1,7.000642090E0,8.033816708E0
6.485781917E0,-4.479884033E0,2.950364685E-1,6.961573334E0,8.283713584E0
6.495802917E0,-4.584366760E0,-2.371069336E-1,5.613925781E0,7.251813633E0
6.505824917E0,-4.147275696E0,-2.890489197E-1,3.965403900E0,5.745247868E0
6.515845917E0,-3.381168823E0,7.664062500E-2,2.191592560E0,4.030043963E0
6.525867917E0,-2.569257202E0,4.728666687E-1,9.738748169E-1,2.788031136E0
6.535888917E0,-1.929786987E0,6.339317322E-1,3.203338623E-1,2.056346527E0
6.545910917E0,-1.350042572E0,6.349795532E-1,-3.981719971E-2,1.492447449E0
6.555931917E0,-8.753796387E-1,5.556445312E-1,-1.998344421E-1,1.055918634E0
6.565953917E0,-5.638774109E-1,3.969744873E-1,-1.505868530E-1,7.058490479E-1
6.575974917E0,-3.823049927E-1,2.537223816E-1,-7.170089722E-2,4.644062586E-1
6.585996917E0,-3.073109436E-1,1.420545959E-1,-6.541397095E-2,3.448166352E-1
6.596017917E0,-2.429447937E-1,1.466949463E-2,-6.960525513E-2,2.531447380E-1
6.606039917E0,-2.462379456E-1,-6.182144165E-2,-1.169068909E-1,2.795035556E-1
6.616060917E0,-2.779719543E-1,-1.067280579E-1,-1.875599670E-1,3.519062758E-1
6.626082917E0,-3.318598938E-1,-1.264869690E-1,-2.317181396E-1,4.240557023E-1
6.636103917E0,-4.276606750E-1,-1.395098877E-1,-2.254312134E-1,5.031658710E-1
6.646125917E0,-5.224136353E-1,-1.734892273E-1,-2.161505127E-1,5.913844455E-1
6.656146917E0,-6.674620056E-1,-2.609074402E-1,-3.574566650E-1,8.008454836E-1
6.666168917E0,-7.207511902E-1,-3.370989990E-1,-6.465055847E-1,1.025225577E0
6.676189917E0,-6.340814209E-1,-2.692900085E-1,-8.057743835E-1,1.060117312E0
6.686211917E0,-5.210664368E-1,-9.131011963E-2,-6.867718506E-1,8.668929255E-1
6.696232917E0,-5.020559692E-1,1.267863464E-1,-3.945794678E-1,6.510206834E-1
6.706254917E0,-4.872367859E-1,2.588117981E-1,-5.867797852E-2,5.548209959E-1
6.716275917E0,-7.565267944E-1,2.168989563E-1,3.418890381E-1,8.580594748E-1
6.726297917E0,-2.092199249E0,1.742376709E-1,-3.822900238E0,4.361447316E0
6.736318917E0,7.818990326E0,-6.559359741E-1,-2.026336212E1,2.172948932E1
6.746340917E0,3.132984924E1,-1.877246246E0,-1.990695328E1,3.716679023E1
6.756361917E0,6.554165543E1,-4.575235748E0,-7.647447052E0,6.614472635E1
6.766383917E0,8.071185883E1,-1.754351807E0,-2.751353531E1,8.529054186E1
6.776404917E0,8.003047577E1,7.300767975E0,-5.788822083E1,9.904152854E1
6.786426917E0,8.023075928E1,5.570216675E0,-5.355637894E1,9.662446778E1
6.796447917E0,7.337830902E1,6.056405640E0,-1.438358917E1,7.501962358E1
6.806469917E0,4.285393478E1,4.375700684E0,7.275769958E0,4.368687802E1
6.816490917E0,2.232891678E1,4.092040558E0,9.431736603E0,2.458216784E1
6.826512917E0,8.523724823E0,2.766996002E0,1.959799576E1,2.154974685E1
6.836533917E0,-1.582958221E0,1.011746063E0,2.121134079E1,2.129437402E1
6.846555917E0,-3.539240112E0,4.224215698E-1,1.215756821E1,1.266929853E1
6.856576917E0,-6.290219421E0,3.808081055E-1,1.511272293E1,1.637395095E1
6.866598917E0,-9.385333099E0,-4.908293152E-1,1.643133087E1,1.892918448E1
6.876619917E0,-1.527064453E1,-1.941462708E-1,1.845961304E1,2.395803812E1
6.886641917E0,-2.099653748E1,5.376818848E-1,2.136626862E1,2.996099335E1
6.896662917E0,-1.834689743E1,8.250842285E-1,1.722183701E1,2.517699504E1
6.906684917E0,-1.077788727E1,7.619155884E-1,9.572444000E0,1.443520189E1
6.916705917E0,-6.077960815E0,8.405021667E-1,4.095782776E0,7.377227671E0
6.926727917E0,-3.154540100E0,8.339158630E-1,-2.752775574E-1,3.274494868E0
6.936748917E0,-1.345402222E0,4.906796265E-1,-2.433938599E0,2.823991986E0
6.946770917E0,-3.143463135E-3,1.709445190E-1,-3.569926300E0,3.574018145E0
6.956791917E0,1.294807434E0,-1.502874756E-1,-3.955674133E0,4.164909419E0
6.966813917E0,2.743345184E0,-6.578819275E-1,-3.534001007E0,4.521937035E0
6.976834917E0,3.981869659E0,-9.451345825E-1,-3.212769012E0,5.202927070E0
6.986856917E0,4.777315521E0,-9.762698364E-1,-2.703977051E0,5.575602055E0
6.996877917E0,5.198838959E0,-6.542893982E-1,-2.102228394E0,5.645829023E0
7.006899917E0,5.405559082E0,-1.046324158E-1,-1.528621216E0,5.618514016E0
7.016920917E0,5.408103790E0,3.390449524E-1,-1.163680115E0,5.542263932E0
7.026942917E0,5.217550049E0,5.528004456E-1,-9.369017029E-1,5.329746865E0
7.036963917E0,4.956343231E0,6.173162842E-1,-6.333329773E-1,5.034632884E0
7.046985917E0,4.794529724E0,5.483097839E-1,-3.876937866E-1,4.841328884E0
7.057006917E0,4.938679962E0,4.436773682E-1,-1.981878662E-1,4.962528368E0
7.067028917E0,5.454507294E0,4.331991577E-1,-1.237925720E-1,5.473082854E0
7.077049917E0,6.299799500E0,4.321513367E-1,-1.401086426E-1,6.316158559E0
7.087071917E0,7.594008179E0,4.162843323E-1,-4.834945679E-2,7.605563131E0
7.097093125E0,9.538913727E0,4.869374084E-1,2.769241333E-1,9.555347723E0
7.107115125E0,1.237207214E1,5.007087708E-1,5.827381897E-1,1.239590506E1
7.117136125E0,1.633433258E1,4.207749939E-1,5.405259705E-1,1.634868927E1
7.127158125E0,2.145338745E1,4.460723877E-1,-2.682421875E-1,2.145970101E1
7.137179125E0,2.643368088E1,8.325686646E-1,-2.534828796E0,2.656798849E1
7.147201125E0,2.883828049E1,1.628313904E0,-7.023993530E0,2.972598716E1
7.157222125E0,2.617352188E1,2.363435211E0,-1.267279678E1,2.917599787E1
7.167244125E0,1.920521255E1,2.890339508E0,-1.314341812E1,2.345087827E1
7.177265125E0,1.277952484E1,2.667602692E0,-8.923992462E0,1.581360176E1
7.187287125E0,8.724158020E0,2.183808746E0,-5.945486298E0,1.078094435E1
7.197308125E0,6.021079102E0,1.795516205E0,-4.231849823E0,7.575343221E0
7.207330125E0,4.213138733E0,1.445993042E0,-3.146905975E0,5.453847365E0
7.217351125E0,3.011587372E0,1.161135406E0,-2.271376648E0,3.946776635E0
7.227372125E0,2.262095947E0,9.357041931E-1,-1.530866547E0,2.887243113E0
7.237394125E0,1.838776245E0,7.710466003E-1,-9.400451660E-1,2.204381059E0
7.247415125E0,1.878443756E0,7.005432129E-1,-5.209167480E-1,2.071392285E0
7.257437125E0,2.477198639E0,7.036866760E-1,-1.523831177E-1,2.579710962E0
7.267458125E0,3.713627472E0,8.614585876E-1,-2.574645996E-2,3.812322491E0
7.277480125E0,5.363346863E0,1.108444977E0,-3.231779480E-1,5.486217624E0
7.287501125E0,7.081324310E0,1.357976074E0,-8.939410400E-1,7.265561478E0
7.297523125E0,8.745862885E0,1.478924561E0,-1.715133362E0,9.034324430E0
7.307544125E0,1.025981461E1,1.519789581E0,-2.392325134E0,1.064409581E1
7.317566125E0,1.162093414E1,1.541045380E0,-3.090173950E0,1.212312279E1
7.327587125E0,1.262818954E1,1.488205261E0,-3.711232452E0,1.324610027E1
7.337609125E0,1.311243256E1,1.315614166E0,-4.115242310E0,1.380586641E1
7.347630125E0,1.299343002E1,9.755213928E-1,-3.976331177E0,1.362321825E1
7.357652125E0,1.222702377E1,6.315367126E-1,-3.019221497E0,1.261010101E1
7.367673125E0,1.112082413E1,4.691244507E-1,-1.785037994E0,1.127293962E1
7.377695125E0,1.009815079E1,3.643423462E-1,-9.813592529E-1,1.015226382E1
7.387716125E0,9.375154266E0,2.603086853E-1,-5.968089294E-1,9.397736910E0
7.397738125E0,9.047335968E0,1.478924561E-1,-5.019062805E-1,9.062453874E0
7.407759125E0,9.020541687E0,2.739303589E-2,-5.580395508E-1,9.037827773E0
7.417781125E0,9.115594025E0,-7.469467163E-2,-6.509962463E-1,9.139115375E0
7.427802125E0,9.142238617E0,-1.402583313E-1,-7.936495972E-1,9.177694646E0
7.437824125E0,9.047934723E0,-2.161505127E-1,-9.120533752E-1,9.096355597E0
7.447845125E0,8.941356354E0,-3.188369751E-1,-1.003812561E0,9.003174447E0
7.457867125E0,9.002728729E0,-4.058061218E-1,-1.078806610E0,9.076212144E0
7.467888125E0,9.223220215E0,-3.700305176E-1,-1.191222839E0,9.307186770E0
7.477910125E0,9.475595398E0,-1.989363098E-1,-1.356329498E0,9.574242190E0
7.487931125E0,9.654772797E0,6.481521606E-2,-1.516346741E0,9.773338539E0
7.497953125E0,9.765692139E0,3.272195435E-1,-1.614692230E0,9.903688534E0
7.507974125E0,9.862391052E0,5.263055420E-1,-1.629661102E0,1.000997253E1
7.517996125E0,9.911638641E0,6.390211487E-1,-1.622775421E0,1.006391219E1
7.528017125E0,9.890382843E0,6.568341064E-1,-1.687440948E0,1.005477801E1
7.538039125E0,9.828112335E0,5.890251160E-1,-1.802850952E0,1.000944625E1
7.548060125E0,9.748328247E0,4.270619202E-1,-1.898502045E0,9.940653676E0
7.558082125E0,9.719887390E0,2.495310974E-1,-1.900597687E0,9.907105945E0
7.568103125E0,9.746531982E0,9.250762939E-2,-1.834135895E0,9.918039011E0
7.578125125E0,9.810598755E0,-4.221221924E-2,-1.737287292E0,9.963322585E0
7.588146125E0,9.861492920E0,-1.218466187E-1,-1.667083282E0,1.000215256E1
7.598168125E0,9.853409729E0,-1.585203552E-1,-1.657353516E0,9.993079238E0
7.608189125E0,9.765093384E0,-1.149609375E-1,-1.691332855E0,9.911148856E0
7.618211125E0,9.625433807E0,-2.275268555E-2,-1.727856903E0,9.779314043E0
7.628232125E0,9.464069366E0,1.233435059E-1,-1.686991882E0,9.614039952E0
7.638254125E0,9.333690491E0,2.737806702E-1,-1.635798340E0,9.479903493E0
7.648275125E0,9.275311890E0,4.851411438E-1,-1.589544525E0,9.423026285E0
7.658297125E0,9.242380371E0,6.848258972E-1,-1.587448883E0,9.402689795E0
7.668318125E0,9.216783600E0,8.184979248E-1,-1.594484253E0,9.389431229E0
7.678340125E0,9.228908386E0,8.809181213E-1,-1.574875031E0,9.403669395E0
7.688361125E0,9.286239166E0,8.674461365E-1,-1.550475769E0,9.454664233E0
7.698383125E0,9.358987885E0,7.912545776E-1,-1.551972656E0,9.519735141E0
7.708404125E0,9.410480804E0,7.165599060E-1,-1.563648376E0,9.566378798E0
7.718426125E0,9.443112946E0,6.433621216E-1,-1.588796082E0,9.597425171E0
7.728447125E0,9.462422791E0,5.713618469E-1,-1.583556976E0,9.611012024E0
7.738469125E0,9.480834503E0,4.833448792E-1,-1.582060089E0,9.624071866E0
7.748490125E0,9.523196411E0,4.082011414E-1,-1.571132813E0,9.660556732E0
7.758512125E0,9.604327698E0,3.252735901E-1,-1.546733551E0,9.733514171E0
7.768533125E0,9.692494354E0,2.799179077E-1,-1.509311371E0,9.813298205E0
7.778555125E0,9.814939728E0,2.579136658E-1,-1.480421448E0,9.929310600E0
7.788576125E0,9.894125061E0,2.523751831E-1,-1.477876740E0,1.000707368E1
7.798598125E0,9.911189575E0,2.659968567E-1,-1.490001526E0,1.002609284E1
7.808619125E0,9.848769379E0,2.697390747E-1,-1.480870514E0,9.963131783E0
7.818641125E0,9.735754395E0,2.944377136E-1,-1.420096893E0,9.843184565E0
7.828662125E0,9.610315247E0,3.384461975E-1,-1.358425140E0,9.711746693E0
7.838684125E0,9.500144348E0,3.915856934E-1,-1.291813660E0,9.595564836E0
7.848705125E0,9.443711700E0,4.346960449E-1,-1.271006927E0,9.538768785E0
7.858727125E0,9.435927887E0,4.475692749E-1,-1.280587006E0,9.532940597E0
7.868748125E0,9.463021545E0,4.460723877E-1,-1.313368835E0,9.564135875E0
7.878770125E0,9.484876099E0,4.487667847E-1,-1.351838837E0,9.591232167E0
7.888791125E0,9.515412598E0,4.418811035E-1,-1.353635101E0,9.621364966E0
7.898813125E0,9.566456451E0,4.417314148E-1,-1.342707825E0,9.670319539E0
7.908834125E0,9.613608398E0,4.480183411E-1,-1.321901093E0,9.714402162E0
7.918856125E0,9.656419373E0,4.469705200E-1,-1.302142181E0,9.754065409E0
7.928877125E0,9.682465210E0,4.406835938E-1,-1.295555878E0,9.778691099E0
7.938899125E0,9.714648285E0,4.272116089E-1,-1.281485138E0,9.808114254E0
7.948920125E0,9.768835602E0,4.290078735E-1,-1.260229340E0,9.859126470E0
7.958942125E0,9.818681946E0,4.402345276E-1,-1.224154358E0,9.904487644E0
7.968963125E0,9.849218445E0,4.754113770E-1,-1.211730194E0,9.934858329E0
7.978985125E0,9.874216461E0,5.084925842E-1,-1.184037781E0,9.957944612E0
7.989006125E0,9.865235138E0,5.511538696E-1,-1.172062683E0,9.949892756E0
7.999028125E0,9.820777588E0,5.771997070E-1,-1.141077118E0,9.903680574E0
8.009049125E0,9.780062256E0,5.798941040E-1,-1.137185211E0,9.863016025E0
8.019071125E0,9.748477936E0,5.851332092E-1,-1.185684357E0,9.837736037E0
8.029092125E0,9.705068207E0,5.842350769E-1,-1.218316498E0,9.798672084E0
8.039113125E0,9.664951630E0,5.918692017E-1,-1.231189728E0,9.761015690E0
8.049135125E0,9.632768555E0,5.906716919E-1,-1.221759338E0,9.727888720E0
8.059156125E0,9.614057465E0,5.734574890E-1,-1.214574280E0,9.707427317E0
8.069178125E0,9.593250732E0,5.294490051E-1,-1.243763580E0,9.688019597E0
8.079199125E0,9.558822327E0,4.656816101E-1,-1.266516266E0,9.653600732E0
8.089221125E0,9.518855438E0,4.038601685E-1,-1.299298096E0,9.615606452E0
8.099242125E0,9.506880341E0,3.405418396E-1,-1.334175568E0,9.606079689E0
8.109264125E0,9.533674622E0,2.924917603E-1,-1.365759888E0,9.635445153E0
8.119285125E0,9.567204895E0,2.607577515E-1,-1.403481445E0,9.673115541E0
8.129307125E0,9.607321472E0,2.445913696E-1,-1.455423431E0,9.720015852E0
8.139328125E0,9.636361084E0,2.511776733E-1,-1.495839386E0,9.755002852E0
8.149350125E0,9.660460968E0,2.589614868E-1,-1.523831177E0,9.783334228E0
8.159371125E0,9.670939178E0,2.842588806E-1,-1.545086975E0,9.797712053E0
8.169393125E0,9.675729218E0,3.216810608E-1,-1.564995575E0,9.806754088E0
8.179414125E0,9.658964081E0,3.600013733E-1,-1.565744019E0,9.791666990E0
8.189436125E0,9.641300812E0,4.107458496E-1,-1.574126587E0,9.777590092E0
8.199457125E0,9.616003418E0,4.638853455E-1,-1.556762695E0,9.752241867E0
8.209479125E0,9.606123962E0,5.056484985E-1,-1.514999542E0,9.737993715E0
8.219500125E0,9.599088593E0,5.346881104E-1,-1.488654327E0,9.728539710E0
8.229522125E0,9.601184235E0,5.650749207E-1,-1.458417206E0,9.727745326E0
8.239543125E0,9.612410889E0,5.791456604E-1,-1.440304871E0,9.736956963E0
8.249565125E0,9.618248749E0,5.674699402E-1,-1.401834869E0,9.736419882E0
8.259586125E0,9.611812134E0,5.569917297E-1,-1.387464752E0,9.727395886E0
8.269608125E0,9.624835052E0,5.441184998E-1,-1.372346191E0,9.737394354E0
8.279629125E0,9.656718750E0,5.255570984E-1,-1.354533234E0,9.765407701E0
8.289651125E0,9.678273926E0,5.069956970E-1,-1.343605957E0,9.784237721E0
8.299672125E0,9.667346649E0,5.089416504E-1,-1.333726501E0,9.772176790E0
8.309694125E0,9.646090851E0,4.793032837E-1,-1.315913544E0,9.747226723E0
8.319715125E0,9.640702057E0,4.713697815E-1,-1.273551636E0,9.735874865E0
8.329737125E0,9.651779022E0,4.887336731E-1,-1.264869690E0,9.746568331E0
8.339758125E0,9.675579529E0,5.128335571E-1,-1.290167084E0,9.774679973E0
8.349780125E0,9.698332214E0,5.376818848E-1,-1.313967590E0,9.801696811E0
8.359801125E0,9.700427856E0,5.575904846E-1,-1.344204712E0,9.808980276E0
8.369823125E0,9.686656494E0,5.589376831E-1,-1.408121796E0,9.804413922E0
8.379844125E0,9.653874664E0,5.334906006E-1,-1.445394287E0,9.776045872E0
8.389866125E0,9.621242523E0,5.007087708E-1,-1.475781097E0,9.746637718E0
8.399887125E0,9.600585480E0,4.761598206E-1,-1.487756195E0,9.726838552E0
8.409909125E0,9.654024353E0,4.843927002E-1,-1.512754211E0,9.783825826E0
8.419930125E0,9.746831360E0,4.903802490E-1,-1.548080750E0,9.881181526E0
8.429952125E0,9.797725525E0,4.694238281E-1,-1.604962463E0,9.939400822E0
8.439973125E0,9.765243073E0,4.474195862E-1,-1.641935577E0,9.912421954E0
8.449995125E0,9.685458984E0,4.671784973E-1,-1.639839935E0,9.834401176E0
8.460016125E0,9.624385986E0,5.131329346E-1,-1.592238922E0,9.768691612E0
8.470038125E0,9.605674896E0,5.634283447E-1,-1.535656586E0,9.743956222E0
8.480059125E0,9.612111511E0,5.951623535E-1,-1.504671021E0,9.747355580E0
8.490081125E0,9.617799683E0,6.159690857E-1,-1.495090942E0,9.752783478E0
8.500102125E0,9.607321472E0,6.045927429E-1,-1.472937012E0,9.738362372E0
8.510124125E0,9.611063690E0,5.614823914E-1,-1.446891174E0,9.735568900E0
8.520145125E0,9.595196686E0,4.960684204E-1,-1.442849579E0,9.715744862E0
8.530167125E0,9.562714233E0,4.305047607E-1,-1.444047089E0,9.680708128E0
8.540188125E0,9.543254700E0,3.727249146E-1,-1.418899384E0,9.655356523E0
8.550210125E0,9.524693298E0,3.444337463E-1,-1.399439850E0,9.633112110E0
8.560231125E0,9.542057190E0,3.218307495E-1,-1.405577087E0,9.650392603E0
8.570253125E0,9.575288086E0,2.817141724E-1,-1.418150940E0,9.683834824E0
8.580274125E0,9.608818359E0,2.345622253E-1,-1.434317322E0,9.718110716E0
8.590296125E0,9.652826843E0,1.869612122E-1,-1.469643860E0,9.765852427E0
8.600317125E0,9.701475677E0,1.475930786E-1,-1.487756195E0,9.815998805E0
8.610339125E0,9.740245056E0,1.193019104E-1,-1.522633667E0,9.859260621E0
8.620360125E0,9.747729492E0,1.076261902E-1,-1.545086975E0,9.870010507E0
8.630382125E0,9.713600464E0,1.052311707E-1,-1.548679504E0,9.836844808E0
8.640403125E0,9.660910034E0,8.966354370E-2,-1.552870789E0,9.785327277E0
8.650425125E0,9.557774506E0,1.086740112E-1,-1.560804291E0,9.684987020E0
8.660446125E0,9.448052673E0,1.463955688E-1,-1.555116119E0,9.576299762E0
8.670468125E0,9.366921387E0,2.103126526E-1,-1.547781372E0,9.496266364E0
8.680489125E0,9.322912903E0,2.755769348E-1,-1.580263824E0,9.459909164E0
8.690510125E0,9.315578156E0,3.351530457E-1,-1.623972931E0,9.462008878E0
8.700532125E0,9.334289246E0,3.857478333E-1,-1.665885773E0,9.489622359E0
8.710553125E0,9.394913177E0,4.135899353E-1,-1.715732117E0,9.559246149E0
8.720575125E0,9.445058899E0,4.331991577E-1,-1.739233246E0,9.613622179E0
8.730596125E0,9.473499756E0,4.352947998E-1,-1.760938110E0,9.645599111E0
8.740618125E0,9.466763763E0,4.311035156E-1,-1.753303986E0,9.637403243E0
8.750639125E0,9.452094269E0,4.149371338E-1,-1.732497253E0,9.618513691E0
8.760661125E0,9.496102753E0,4.125421143E-1,-1.666634216E0,9.650068813E0
8.770682125E0,9.589658203E0,4.552033997E-1,-1.630708923E0,9.737965197E0
8.780704125E0,9.703721008E0,5.260061646E-1,-1.607207794E0,9.849974659E0
8.790725125E0,9.810898132E0,5.972579956E-1,-1.575024719E0,9.954453382E0
8.800747125E0,9.853858795E0,6.635700989E-1,-1.542242889E0,9.995867724E0
8.810768125E0,9.845326538E0,7.050338745E-1,-1.501976624E0,9.984160515E0
8.820790125E0,9.796827393E0,7.189549255E-1,-1.461111603E0,9.931242131E0
8.830811125E0,9.758656769E0,7.177574158E-1,-1.441652069E0,9.890648024E0
8.840833125E0,9.745035095E0,6.972500610E-1,-1.433419189E0,9.874540862E0
8.850854125E0,9.715396729E0,6.637197876E-1,-1.453627167E0,9.845937715E0
8.860876125E0,9.660610657E0,6.590794373E-1,-1.495090942E0,9.797810005E0
8.870897125E0,9.603279877E0,6.641688538E-1,-1.529070282E0,9.746905180E0
8.880919125E0,9.552086334E0,6.517446899E-1,-1.561702423E0,9.700826714E0
8.890940125E0,9.492061157E0,6.397695923E-1,-1.617087250E0,9.650051882E0
8.900962125E0,9.411828003E0,6.041436768E-1,-1.669927368E0,9.577899214E0
8.910983125E0,9.314081268E0,5.839356995E-1,-1.719624023E0,9.489478255E0
8.921005125E0,9.194779358E0,5.601351929E-1,-1.760039978E0,9.378457208E0
8.931026125E0,9.061855774E0,5.400769043E-1,-1.802401886E0,9.255137259E0
8.941048125E0,8.936416626E0,5.263055420E-1,-1.850152588E0,9.141094258E0
8.951069125E0,8.873098297E0,4.960684204E-1,-1.897753601E0,9.087322268E0
8.961091125E0,8.833580475E0,4.810995483E-1,-1.957928467E0,9.060744156E0
8.971112125E0,8.806037750E0,4.775070190E-1,-2.044298859E0,9.052815674E0
8.981134125E0,8.777596893E0,5.044509888E-1,-2.142195282E0,9.049291610E0
8.991155125E0,8.714727631E0,5.361849976E-1,-2.233954468E0,9.012464956E0
9.001177125E0,8.606951752E0,5.560935974E-1,-2.323019257E0,8.932260465E0
9.011198125E0,8.452472992E0,5.746549988E-1,-2.404000854E0,8.806460592E0
9.021220125E0,8.273744659E0,6.239025879E-1,-2.497556305E0,8.664980821E0
9.031241125E0,8.057444458E0,6.614744568E-1,-2.565365295E0,8.481807517E0
9.041263125E0,7.799231415E0,6.976991272E-1,-2.601290588E0,8.251151887E0
9.051284125E0,7.527097321E0,7.399113464E-1,-2.614313507E0,8.002455747E0
9.061306125E0,7.212152252E0,7.691006470E-1,-2.624192963E0,7.713173447E0
9.071327125E0,6.875951385E0,8.092172241E-1,-2.617007904E0,7.401504600E0
9.081349125E0,6.532415771E0,8.660989380E-1,-2.630330200E0,7.095154695E0
9.091370125E0,6.188880157E0,9.201365662E-1,-2.641107788E0,6.791490209E0
9.101392792E0,5.796096954E0,9.770182800E-1,-2.607727203E0,6.430361249E0
9.111413792E0,5.359604645E0,1.020877075E0,-2.554438019E0,6.024342748E0
9.121435792E0,4.921465759E0,1.062640228E0,-2.526595917E0,5.633268714E0
9.131456792E0,4.543202362E0,1.037642212E0,-2.440824280E0,5.260704537E0
9.141478792E0,4.171824646E0,9.464817810E-1,-2.349065094E0,4.880374520E0
9.151499792E0,3.731290741E0,8.473878479E-1,-2.371817780E0,4.501790348E0
9.161521792E0,3.218457184E0,7.316784668E-1,-2.482437744E0,4.129929440E0
9.171542792E0,2.690056000E0,6.069877625E-1,-2.672991486E0,3.840536279E0
9.181564792E0,2.223476257E0,4.802014160E-1,-2.907404022E0,3.691536024E0
9.191585792E0,1.862127686E0,3.357518005E-1,-3.020419006E0,3.564152040E0
9.201607792E0,1.682650909E0,1.347198486E-1,-3.386856995E0,3.784212444E0
9.211628792E0,1.978136444E0,-2.619552612E-2,-3.906426544E0,4.378798733E0
9.221649792E0,2.829116821E0,-1.064286804E-1,-4.312981110E0,5.159170002E0
9.231671792E0,4.111799469E0,7.963439941E-2,-4.283642120E0,5.938251117E0
9.241692792E0,4.856201477E0,-2.005828857E-2,-4.498295746E0,6.619498451E0
9.251714792E0,5.738915863E0,-3.649411011E-1,-5.513933716E0,7.966919249E0
9.261735792E0,6.744225311E0,-8.571176147E-1,-6.155798950E0,9.171318682E0
9.271757792E0,7.848778381E0,-1.303938446E0,-7.579787750E0,1.098893807E1
9.281778792E0,9.904004517E0,-7.711962891E-1,-8.558901672E0,1.311254541E1
9.291800792E0,1.137200180E1,-2.880010986E-1,-8.704249420E0,1.432373302E1
9.301821792E0,1.153725815E1,-1.654060364E-1,-9.020990753E0,1.464629506E1
9.311843792E0,1.113294891E1,-1.678010559E-1,-9.423354034E0,1.458664835E1
9.321864792E0,1.025307861E1,-3.968247986E-1,-9.577683105E0,1.403620692E1
9.331886792E0,9.276060333E0,-8.599617004E-1,-9.505682831E0,1.330950170E1
9.341907792E0,8.243956604E0,-1.455273743E0,-9.284293213E0,1.250114965E1
9.351929792E0,7.032226410E0,-2.001936951E0,-9.160350952E0,1.172057974E1
9.361950792E0,5.786217499E0,-2.430046692E0,-9.505084076E0,1.138999838E1
9.371972792E0,4.407135315E0,-2.381397858E0,-1.009291168E1,1.126768670E1
9.381993792E0,2.876418457E0,-1.936373291E0,-1.094194611E1,1.147821891E1
9.392015792E0,1.483415222E0,-1.610500946E0,-1.202703964E1,1.222472562E1
9.402036792E0,3.336561584E-1,-1.539698181E0,-1.325748093E1,1.335076018E1
9.412058792E0,-5.495072937E-1,-1.495240631E0,-1.457878326E1,1.466555912E1
9.422079792E0,-1.049317932E0,-8.084687805E-1,-1.590263031E1,1.595770474E1
9.432101792E0,-8.411009216E-1,3.373983765E-1,-1.676334045E1,1.678781914E1
9.442122792E0,8.143066406E-2,1.480571136E0,-1.686872131E1,1.693376747E1
9.452144792E0,1.473835144E0,1.746268616E0,-1.651485718E1,1.667219697E1
9.462165792E0,3.040626984E0,5.992039490E-1,-1.599154541E1,1.628907555E1
9.472187792E0,4.427043915E0,-9.970765686E-1,-1.561253357E1,1.625866181E1
9.482208792E0,4.878954163E0,-1.839075623E0,-1.569216797E1,1.653573489E1
9.492230792E0,4.162394257E0,-1.630409546E0,-1.639375900E1,1.699232460E1
9.502251792E0,2.980901184E0,-1.308429108E0,-1.770997192E1,1.800668943E1
9.512273792E0,2.042652283E0,-9.794132996E-1,-1.884790558E1,1.898355139E1
9.522294792E0,1.666783905E0,-6.500981140E-1,-1.962613724E1,1.970751276E1
9.532316792E0,1.718875580E0,-4.245172119E-1,-2.036919205E1,2.044599552E1
9.542337792E0,1.999242554E0,-1.044827271E-1,-2.141970749E1,2.151306013E1
9.552359792E0,2.432741089E0,-3.532653809E-2,-2.265074753E1,2.278104126E1
9.562380792E0,3.002755737E0,-2.275268555E-2,-2.375545029E1,2.394448742E1
9.572402792E0,3.650608521E0,-1.796264648E-3,-2.491553787E1,2.518156018E1
9.582423792E0,4.474046173E0,-4.340972900E-3,-2.650163956E1,2.687664427E1
9.592445792E0,5.665418701E0,1.471440125E-1,-2.816123840E1,2.872584148E1
9.602466792E0,7.276219025E0,5.517526245E-1,-2.975407608E1,3.063580973E1
9.612488792E0,9.289232941E0,1.209634552E0,-3.039683945E1,3.180756062E1
9.622509792E0,1.315239944E1,1.615740051E0,-2.886208099E1,3.175871449E1
9.632531792E0,1.873174713E1,2.631527710E0,-2.348466339E1,3.015514389E1
9.642552792E0,2.426469131E1,4.054319000E0,-1.493923370E1,2.878182501E1
9.652574792E0,3.245386185E1,5.270390167E0,-9.465566254E0,3.421442833E1
9.662595792E0,4.118804901E1,4.308939514E0,-3.463647308E0,4.155742044E1
9.672617792E0,4.503070816E1,2.553689575E-1,1.234333191E0,4.504834591E1
9.682638792E0,4.019052338E1,-2.652334442E0,4.140390015E0,4.049019482E1
9.692660792E0,2.972728180E1,-2.553539886E0,3.928730164E0,3.009429796E1
9.702681792E0,2.014540741E1,-1.464105377E0,2.800975342E0,2.039182452E1
9.712702792E0,1.388482635E1,-7.292834473E-1,1.938468933E0,1.403844432E1
9.722724792E0,9.788744202E0,4.625381470E-2,8.734336853E-1,9.827743325E0
9.732745792E0,6.267466736E0,4.641847229E-1,4.300556946E-1,6.299329698E0
9.742767792E0,3.126099243E0,5.722599792E-1,1.875599670E-1,3.183576087E0
9.752788792E0,9.735754395E-1,6.357279968E-1,-2.071691895E-1,1.181066592E0
9.762810792E0,-4.101470947E-1,2.164498901E-1,-4.706213379E-1,6.607235715E-1
9.772831792E0,-7.285350037E-1,-6.631210327E-2,-4.101470947E-1,8.386782374E-1
9.782853792E0,-7.138655090E-1,-6.376739502E-2,-2.896476746E-1,7.730239460E-1
9.792874792E0,-8.747808838E-1,-1.130149841E-1,2.844085693E-3,8.820555935E-1
9.802896792E0,-1.285077667E0,-2.195933533E-1,5.403762817E-2,1.304824094E0
9.812917792E0,-1.949096832E0,-1.381626892E-1,-2.694396973E-2,1.954173321E0
9.822939792E0,-2.681074677E0,2.568658447E-1,-4.354444885E-1,2.728324282E0
9.832960792E0,-3.422931976E0,5.725593567E-1,-1.227148132E0,3.681056923E0
9.842982792E0,-4.568499756E0,6.292913818E-1,-3.826043701E0,5.992145531E0
9.853003792E0,-5.010829926E0,4.484674072E-1,-1.170835236E1,1.274343182E1
9.863025792E0,-5.291196899E0,8.246351624E-1,-1.606055191E1,1.692979963E1
9.873046792E0,-5.542673950E0,3.902384949E-1,-1.693248871E1,1.782084999E1
9.883068792E0,-5.731431427E0,-9.291178894E-1,-1.838940903E1,1.928426640E1
9.893089792E0,-6.781497803E0,-8.707392883E-1,-1.684387299E1,1.817864012E1
9.903111792E0,-7.202272797E0,-3.582051086E-1,-1.497201553E1,1.661813147E1
9.913132792E0,-6.715485077E0,-7.905061340E-1,-1.245230530E1,1.416977583E1
9.923154792E0,-6.211632843E0,-5.903723145E-1,-9.291777649E0,1.119241055E1
9.933175792E0,-5.424868927E0,-7.735913086E-1,-6.530020752E0,8.524600718E0
9.943197792E0,-4.722230072E0,-7.457492065E-1,-4.517156525E0,6.577256404E0
9.953218792E0,-4.046834564E0,-6.126759338E-1,-3.492686920E0,5.380622986E0
9.963240792E0,-3.839365997E0,-5.026547241E-1,-2.847378845E0,4.806345735E0
9.973261792E0,-3.973038025E0,-3.273692322E-1,-2.377805328E0,4.641784133E0
9.983283792E0,-4.080963593E0,-1.688488770E-1,-2.093247070E0,4.589603151E0
9.993304792E0,-4.094285889E0,-8.322692871E-2,-1.719174957E0,4.441358598E0
1.000332679E1,-3.937561798E0,-2.514770508E-2,-1.164129181E0,4.106120075E0
1.001334779E1,-3.632047119E0,3.547622681E-2,-2.267784119E-1,3.639292965E0
1.002336979E1,-3.236868896E0,5.179229736E-2,6.035449219E-1,3.293063796E0
1.003339079E1,-2.868634644E0,8.831634521E-3,1.209185486E0,3.113080830E0
1.004341279E1,-2.685415649E0,1.070274353E-1,1.631906433E0,3.144205892E0
1.005343379E1,-2.775677948E0,2.168989563E-1,2.193688202E0,3.544531162E0
1.006345579E1,-3.092718658E0,3.005749512E-1,2.995420990E0,4.315993618E0
1.007347679E1,-3.890110474E0,2.189945984E-1,5.150489502E0,6.458208749E0
1.008349879E1,-5.185516663E0,2.079176331E-1,8.660540314E0,1.009642369E1
1.009352288E1,-6.356381836E0,-6.286926270E-3,1.055230637E1,1.231887979E1
1.010354488E1,-6.462361450E0,1.721420288E-2,8.568332062E0,1.073213521E1
1.011356588E1,-4.937033386E0,3.924838257E-1,3.169209595E0,5.879815615E0
1.012358788E1,-3.406915283E0,7.734416199E-1,5.757028198E-1,3.540722726E0
1.013360888E1,-2.165995789E0,9.538165283E-1,1.481918335E-1,2.371342351E0
1.014362988E1,-1.144070892E0,9.955796814E-1,5.906716919E-1,1.627565715E0
1.015365188E1,-5.075944519E-1,9.030720520E-1,7.261399841E-1,1.265097046E0
1.016367288E1,-2.377056885E-1,7.845185852E-1,4.957690430E-1,9.579980944E-1
1.017369488E1,-1.172062683E-1,7.066804504E-1,2.891986084E-1,7.725091608E-1
1.018371588E1,-6.840774536E-2,6.433621216E-1,1.495390320E-1,6.640454512E-1
1.019373788E1,-1.127156067E-1,5.625302124E-1,5.104385376E-2,5.759778840E-1
1.020375888E1,-1.811233521E-1,4.396357727E-1,-7.020401001E-2,4.806390375E-1
1.021378088E1,-1.755848694E-1,3.646417236E-1,-1.071771240E-1,4.186652229E-1
1.022380188E1,-1.179547119E-1,2.625540161E-1,-7.604187012E-2,2.977084000E-1
1.023382388E1,-1.236428833E-1,1.561253357E-1,-7.170089722E-2,2.116688491E-1
1.024384488E1,-1.936972046E-1,6.661148071E-2,-1.685494995E-1,2.652633224E-1
1.025386688E1,-3.204835510E-1,7.783813477E-3,-3.016227722E-1,4.401665491E-1
1.026388788E1,-4.968168640E-1,-1.347198486E-2,-4.198768616E-1,6.506189896E-1
1.027390988E1,-5.721102905E-1,-4.939727783E-2,-5.063969421E-1,7.656292436E-1
1.028393088E1,-4.881349182E-1,-1.170565796E-1,-4.813989258E-1,6.955018813E-1
1.029395288E1,-2.915936279E-1,-1.574725342E-1,-3.342549133E-1,4.706918206E-1
1.030397388E1,8.981323242E-4,-3.577560425E-2,-1.315763855E-1,1.363563190E-1
1.031399588E1,2.875520325E-1,1.920506287E-1,-1.221459961E-1,3.667277733E-1
1.032401688E1,-4.046086121E-1,2.754272461E-2,-1.426533508E-1,4.299031392E-1
1.033403888E1,-1.634600830E0,-4.192781067E-1,-1.122665405E0,2.026842771E0
1.034405988E1,-1.397493896E0,2.797682190E-1,-1.246128662E1,1.254252461E1
1.035408188E1,3.811074829E-1,1.709445190E-1,-3.269231598E1,3.269498416E1
1.036410288E1,7.880362701E0,-3.877087555E0,-4.508609299E1,4.593351396E1
1.037412488E1,6.775630005E1,-1.531225800E1,-5.696553955E1,8.983570636E1
1.038414588E1,8.133800674E1,-9.785900116E0,-3.453034378E1,8.890432961E1
1.039416788E1,7.881485367E1,-1.349443817E0,-2.553869202E1,8.286028571E1
1.040418888E1,7.901813095E1,-3.556903381E0,-8.931327209E0,7.960078634E1
1.041421088E1,6.604910019E1,-5.103487244E0,3.535048828E0,6.634022752E1
1.042423188E1,3.131353317E1,-2.103276215E0,9.324409790E0,3.273997172E1
1.043425388E1,1.108744354E1,-4.772076416E0,1.658640839E1,2.051372859E1
1.044427488E1,3.196752319E0,-5.629792786E0,1.437056625E1,1.576156612E1
1.045429688E1,-5.478607178E-1,-3.980223083E0,1.370250549E1,1.427939018E1
1.046431788E1,-1.841320953E0,-1.564546509E0,1.304357574E1,1.326548668E1
1.047433988E1,-4.139491882E0,-7.259902954E-1,1.512873962E1,1.570163105E1
1.048436088E1,-6.609954529E0,-1.433269501E0,1.502051468E1,1.647305744E1
1.049438288E1,-8.179590454E0,-1.393601990E0,1.244257553E1,1.495545092E1
1.050440388E1,-8.794362030E0,-1.389859772E0,9.764344940E0,1.321419486E1
1.051442588E1,-8.369695129E0,-1.237925720E0,7.831713867E0,1.152909358E1
1.052444688E1,-7.068151703E0,-1.041534119E0,6.897057495E0,9.930406029E0
1.053446888E1,-5.101241913E0,-8.388555908E-1,5.346881104E0,7.437438087E0
1.054448987E1,-3.213218079E0,-7.015910339E-1,3.432512054E0,4.753855215E0
1.055451088E1,-1.872755585E0,-6.207591248E-1,1.501078491E0,2.479070795E0
1.056453288E1,-1.165775757E0,-5.670208740E-1,-2.589614868E-2,1.296617290E0
1.057455388E1,-9.409432983E-1,-5.089416504E-1,-7.400610352E-1,1.300802149E0
1.058457588E1,-8.264314270E-1,-4.029620361E-1,-1.071172485E0,1.411657820E0
1.059459688E1,-7.108717346E-1,-3.113525391E-1,-9.921368408E-1,1.259608883E0
1.060461888E1,-5.748046875E-1,-3.058140564E-1,-1.010698242E0,1.202261869E0
1.061463988E1,-4.617897034E-1,-2.598596191E-1,-1.071172485E0,1.195067883E0
1.062466188E1,-4.023632813E-1,-2.170486450E-1,-1.062490540E0,1.156673018E0
1.063468288E1,-3.697311401E-1,-1.350192261E-1,-1.090182953E0,1.159064355E0
1.064470488E1,-2.980302429E-1,-1.496887207E-4,-1.246607666E0,1.281738164E0
1.065472588E1,-2.158511353E-1,1.134640503E-1,-1.391955414E0,1.413154513E0
1.066474788E1,-1.212478638E-1,2.052232361E-1,-1.423689423E0,1.443505869E0
1.067476888E1,2.110610962E-2,3.049159241E-1,-1.348545685E0,1.382748948E0
1.068479088E1,3.748205566E-1,3.326083374E-1,-1.198557587E0,1.299099320E0
1.069481188E1,1.262324982E0,3.053649902E-1,-1.236279144E0,1.793069508E0
1.070483388E1,2.722688141E0,4.918771362E-1,-1.562301178E0,3.177382382E0
1.071485488E1,5.520520020E0,5.617817688E-1,-2.723586273E0,6.181396463E0
1.072487687E1,1.123324036E1,1.917512512E-1,-6.228397980E0,1.284583196E1
1.073489788E1,1.934831497E1,3.698808289E-1,-1.389455612E1,2.382336655E1
1.074491988E1,2.787443481E1,2.020498352E0,-2.320279953E1,3.632404762E1
1.075494088E1,3.479589157E1,3.643423462E0,-2.819776245E1,4.493486855E1
1.076496288E1,3.527953583E1,2.242337036E0,-2.424777649E1,4.286756802E1
1.077498388E1,2.458263016E1,-1.071322174E0,-1.638732239E1,2.956345331E1
1.078500588E1,1.510793289E1,-1.403930511E0,-1.142559036E1,1.899380879E1
1.079502688E1,9.769284668E0,-1.000968475E0,-7.679480438E0,1.246656651E1
1.080504888E1,6.187832336E0,-7.566764832E-1,-4.609664154E0,7.753117562E0
1.081506988E1,3.778592377E0,-4.810995483E-1,-2.602039032E0,4.613005988E0
1.082509188E1,2.113604736E0,-3.273692322E-1,-1.398092651E0,2.555221841E0
1.083511288E1,1.008003845E0,-2.502795410E-1,-7.837701416E-1,1.301156115E0
1.084513488E1,2.863545227E-1,-2.116598511E-1,-4.417314148E-1,5.673847443E-1
1.085515588E1,-7.499404907E-2,-2.052232361E-1,-2.445913696E-1,3.279719837E-1
1.086517788E1,-9.190887451E-2,-2.871029663E-1,-1.523831177E-1,3.377809483E-1
1.087519888E1,6.409671021E-1,-5.539979553E-1,8.457412720E-2,8.514137322E-1
1.088522088E1,2.395019531E0,-9.629475403E-1,5.902226257E-1,2.647970783E0
1.089524188E1,4.852309570E0,-1.461860046E0,1.040486298E0,5.173447081E0
1.090526387E1,7.662565613E0,-1.909878387E0,1.810634766E0,8.101909990E0
1.091528488E1,1.074405762E1,-2.023043060E0,2.868484955E0,1.130290596E1
1.092530588E1,1.415890640E1,-1.800755310E0,3.507506104E0,1.469761713E1
1.093532788E1,1.694850540E1,-1.352587280E0,3.293600922E0,1.731846225E1
1.094534888E1,1.821651855E1,-7.488926697E-1,1.436412964E0,1.828840263E1
1.095537088E1,1.770847504E1,-7.873626709E-2,-1.345402222E0,1.775968453E1
1.096539188E1,1.538291107E1,4.447251892E-1,-3.970792694E0,1.589336113E1
1.097541388E1,1.232956055E1,4.537065125E-1,-4.696034546E0,1.320138831E1
1.098543488E1,9.900262299E0,2.978805542E-2,-3.668421478E0,1.055809628E1
1.099545688E1,8.285869446E0,-3.686833191E-1,-2.362237701E0,8.623904384E0
1.100547788E1,7.284152527E0,-6.701564026E-1,-1.220262451E0,7.415998118E0
1.101549988E1,6.818171539E0,-9.427395630E-1,-2.794688416E-1,6.888709883E0
1.102552088E1,6.801705780E0,-1.164129181E0,5.084925842E-1,6.919318101E0
1.103554288E1,7.240892487E0,-1.252295837E0,1.041983185E0,7.421893143E0
1.104556388E1,8.049211578E0,-1.100062408E0,1.087189178E0,8.196458055E0
1.105558588E1,8.845705261E0,-8.069718933E-1,5.616320801E-1,8.900176167E0
1.106560688E1,9.380692749E0,-4.596940613E-1,-3.514691162E-1,9.398523587E0
1.107562888E1,9.794731750E0,-1.154100037E-1,-1.351240082E0,9.888171686E0
1.108564988E1,1.018437149E1,1.550775146E-1,-2.078128510E0,1.039538791E1
1.109566792E1,1.052296738E1,3.433859253E-1,-2.517015839E0,1.082525404E1
1.110568892E1,1.070992859E1,4.935237122E-1,-2.795287170E0,1.107970065E1
1.111571092E1,1.071606583E1,6.135740662E-1,-2.982248383E0,1.114021298E1
1.112573192E1,1.052326675E1,6.526428223E-1,-3.130440216E0,1.099839724E1
1.113575392E1,1.020966888E1,6.120771790E-1,-3.180286560E0,1.071103169E1
1.114577492E1,9.816137238E0,4.674778748E-1,-3.023412781E0,1.028183401E1
1.115579692E1,9.440717926E0,1.758842468E-1,-2.706970825E0,9.822717612E0
1.116581792E1,9.202114105E0,-1.833686829E-1,-2.375559998E0,9.505567494E0
1.117583992E1,9.110055542E0,-5.387297058E-1,-2.154170380E0,9.376768724E0
1.118586092E1,9.098529510E0,-8.155041504E-1,-2.092199249E0,9.371530503E0
1.119588292E1,9.120833130E0,-9.671388245E-1,-2.077080688E0,9.404212815E0
1.120590392E1,9.145082703E0,-1.064586182E0,-2.031425629E0,9.428285712E0
1.121592592E1,9.139693909E0,-1.092428284E0,-1.928888855E0,9.404680564E0
1.122594692E1,9.118587799E0,-1.048419800E0,-1.779798889E0,9.349626282E0
1.123596892E1,9.107660522E0,-9.247769165E-1,-1.603764954E0,9.293909541E0
1.124598992E1,9.142537994E0,-6.858737183E-1,-1.433568878E0,9.279630567E0
1.125601192E1,9.244176636E0,-3.751199341E-1,-1.306034088E0,9.343513348E0
1.126603292E1,9.411678314E0,-2.933898926E-2,-1.305135956E0,9.501785586E0
1.127605392E1,9.603279877E0,2.321672058E-1,-1.392703857E0,9.706518945E0
1.128607592E1,9.798324280E0,3.812571716E-1,-1.497785339E0,9.919469575E0
1.129609692E1,9.906399536E0,4.746629333E-1,-1.608105927E0,1.004729124E1
1.130611892E1,9.934091949E0,5.523513794E-1,-1.689835968E0,1.009191857E1
1.131613992E1,9.867480469E0,6.469546509E-1,-1.656006317E0,1.002636914E1
1.132616192E1,9.748178558E0,7.192543030E-1,-1.554816742E0,9.897563693E0
1.133618292E1,9.611213379E0,7.641609192E-1,-1.423390045E0,9.746045544E0
1.134620492E1,9.476194153E0,7.702981567E-1,-1.300495605E0,9.595983727E0
1.135622592E1,9.377698975E0,7.583230591E-1,-1.184636536E0,9.482597516E0
1.136624792E1,9.327403564E0,7.276368713E-1,-1.079854431E0,9.417855290E0
1.137626892E1,9.341324615E0,6.973997498E-1,-9.984237671E-1,9.420380141E0
1.138629092E1,9.402696991E0,6.462062073E-1,-9.439370728E-1,9.472027785E0
1.139631192E1,9.487121429E0,5.813909912E-1,-9.196875000E-1,9.549309588E0
1.140633392E1,9.576036530E0,5.041516113E-1,-9.243278503E-1,9.633744155E0
1.141635492E1,9.655072174E0,4.270619202E-1,-9.577084351E-1,9.711848744E0
1.142637692E1,9.706714783E0,3.585044861E-1,-9.916877747E-1,9.763825172E0
1.143639792E1,9.702972565E0,3.062631226E-1,-1.024020538E0,9.761664395E0
1.144641992E1,9.707912292E0,2.395019531E-1,-1.046773224E0,9.767121195E0
1.145644092E1,9.714648285E0,1.917512512E-1,-1.077609100E0,9.776113809E0
1.146646292E1,9.717342682E0,1.612147522E-1,-1.131347351E0,9.784308142E0
1.147648392E1,9.711504822E0,9.969268799E-2,-1.149010620E0,9.779748971E0
1.148650592E1,9.704918518E0,4.715194702E-2,-1.175206146E0,9.775928408E0
1.149652692E1,9.659113770E0,3.293151855E-3,-1.221310272E0,9.736020154E0
1.150654892E1,9.598190460E0,8.831634521E-3,-1.271306305E0,9.682022404E0
1.151656992E1,9.538614349E0,4.610412598E-2,-1.328936462E0,9.630854657E0
1.152659192E1,9.480535126E0,1.178050232E-1,-1.387464752E0,9.582248313E0
1.153661292E1,9.464368744E0,1.633103943E-1,-1.440753937E0,9.574795972E0
1.154663492E1,9.515711975E0,1.908531189E-1,-1.503024445E0,9.635573765E0
1.155665592E1,9.543105011E0,2.019300842E-1,-1.553020477E0,9.670754966E0
1.156667792E1,9.576934662E0,2.026785278E-1,-1.579814758E0,9.708479323E0
1.157669892E1,9.602980499E0,2.225871277E-1,-1.585502930E0,9.735532807E0
1.158672092E1,9.655820618E0,2.299218750E-1,-1.549577637E0,9.782071699E0
1.159674192E1,9.703271942E0,2.333647156E-1,-1.509610748E0,9.822773034E0
1.160676392E1,9.737251282E0,2.192939758E-1,-1.451082458E0,9.847222587E0
1.161678492E1,9.757459259E0,1.627116394E-1,-1.354233856E0,9.852331481E0
1.162680692E1,9.774823151E0,1.173559570E-1,-1.260379028E0,9.856444356E0
1.163682792E1,9.800569611E0,5.837860107E-2,-1.167721710E0,9.870063158E0
1.164684892E1,9.836794281E0,3.472778320E-2,-1.107097778E0,9.898959200E0
1.165687092E1,9.869276733E0,6.436614990E-3,-1.081950073E0,9.928407759E0
1.166689192E1,9.902956696E0,-2.320175171E-2,-1.055155792E0,9.959038276E0
1.167691392E1,9.921069031E0,-4.026626587E-2,-1.053958282E0,9.976976503E0
1.168693492E1,9.909243622E0,-4.879852295E-2,-1.037342834E0,9.963511962E0
1.169695692E1,9.892927551E0,-5.718109131E-2,-1.008303223E0,9.944343146E0
1.170697792E1,9.845326538E0,-6.107299805E-2,-9.901908875E-1,9.895183806E0
1.171699992E1,9.794132996E0,-5.508544922E-2,-1.000818787E0,9.845288913E0
1.172702092E1,9.721234589E0,-1.990859985E-2,-1.040785675E0,9.776810988E0
1.173704292E1,9.652377777E0,4.340972900E-3,-1.101708984E0,9.715049062E0
1.174706392E1,9.593699799E0,3.353027344E-2,-1.172062683E0,9.665088258E0
1.175708592E1,9.564061432E0,6.436614990E-2,-1.252595215E0,9.645952978E0
1.176710692E1,9.570647736E0,9.131011963E-2,-1.321901093E0,9.661938631E0
1.177712892E1,9.580676880E0,1.020877075E-1,-1.386865997E0,9.681073735E0
1.178714992E1,9.605674896E0,1.167572021E-1,-1.460662537E0,9.716797698E0
1.179717192E1,9.604327698E0,1.237925720E-1,-1.495989075E0,9.720926830E0
1.180719292E1,9.592352600E0,1.127156067E-1,-1.511556702E0,9.711371524E0
1.181721492E1,9.573192444E0,7.694000244E-2,-1.511107635E0,9.692026600E0
1.182723592E1,9.561516724E0,3.921844482E-2,-1.488654327E0,9.676788302E0
1.183725792E1,9.536668396E0,3.293151855E-3,-1.470991058E0,9.649449188E0
1.184727892E1,9.500294037E0,-1.422042847E-2,-1.462758179E0,9.612255224E0
1.185730092E1,9.478439484E0,-2.679428101E-2,-1.443747711E0,9.587801648E0
1.186732192E1,9.486971741E0,-4.580474854E-2,-1.435963898E0,9.595140603E0
1.187734392E1,9.514813843E0,-5.104385376E-2,-1.436113586E0,9.622718440E0
1.188736492E1,9.552685089E0,-3.936813354E-2,-1.461710358E0,9.663950509E0
1.189738692E1,9.597292328E0,-2.888992310E-2,-1.476679230E0,9.710274775E0
1.190740792E1,9.610614624E0,-1.901046753E-2,-1.489851837E0,9.725427155E0
1.191742992E1,9.616153107E0,-5.987548828E-4,-1.506766663E0,9.733485846E0
1.192745092E1,9.613458710E0,2.230361938E-2,-1.500928802E0,9.729947229E0
1.193747292E1,9.613309021E0,5.448669434E-2,-1.497336273E0,9.729372798E0
1.194749392E1,9.626331940E0,4.146377563E-2,-1.504671021E0,9.743306458E0
1.195751492E1,9.633067932E0,7.933502197E-3,-1.493294678E0,9.748127498E0
1.196753692E1,9.644144897E0,2.365081787E-2,-1.480271759E0,9.757115078E0
1.197755792E1,9.663005676E0,5.149291992E-2,-1.460961914E0,9.772959630E0
1.198757992E1,9.673633575E0,6.256988525E-2,-1.416953430E0,9.777057766E0
1.199760092E1,9.658365326E0,4.984634399E-2,-1.380878448E0,9.756706961E0
1.200762292E1,9.651030579E0,4.984634399E-2,-1.344803467E0,9.744402098E0
1.201764392E1,9.666897583E0,5.149291992E-2,-1.303339691E0,9.754499206E0
1.202766592E1,9.705068207E0,3.727249146E-2,-1.261127472E0,9.786734932E0
1.203768692E1,9.742191010E0,3.128494263E-2,-1.232237549E0,9.819861190E0
1.204770892E1,9.764344940E0,1.811233521E-2,-1.205742645E0,9.838525067E0
1.205772992E1,9.811347198E0,1.856140137E-2,-1.176553345E0,9.881657561E0
1.206775192E1,9.863588562E0,1.856140137E-2,-1.178798676E0,9.933795355E0
1.207777292E1,9.890382843E0,9.131011963E-3,-1.178499298E0,9.960352240E0
1.208779492E1,9.865983582E0,9.879455566E-3,-1.196911011E0,9.938326097E0
1.209782013E1,9.801617432E0,1.182540894E-2,-1.203946381E0,9.875288907E0
1.210784213E1,9.700727234E0,-2.245330811E-3,-1.216669922E0,9.776727449E0
1.211786313E1,9.641749878E0,-1.841171265E-2,-1.257385254E0,9.723409761E0
1.212788513E1,9.611662445E0,-5.224136353E-2,-1.284179535E0,9.697211001E0
1.213790613E1,9.603130188E0,-1.025367737E-1,-1.333277435E0,9.695785266E0
1.214792813E1,9.629325714E0,-1.610650635E-1,-1.370549927E0,9.727705935E0
1.215794913E1,9.635762329E0,-1.871109009E-1,-1.418150940E0,9.741359158E0
1.216797113E1,9.617200928E0,-1.981878662E-1,-1.448238373E0,9.727652672E0
1.217799213E1,9.577982483E0,-2.002835083E-1,-1.469643860E0,9.692147079E0
1.218801413E1,9.548793182E0,-2.043251038E-1,-1.505419464E0,9.668892788E0
1.219803513E1,9.526190186E0,-2.186952209E-1,-1.537153473E0,9.651889341E0
1.220805713E1,9.488318939E0,-1.974394226E-1,-1.565145264E0,9.618568413E0
1.221807813E1,9.448501740E0,-1.951940918E-1,-1.596879272E0,9.584482733E0
1.222810013E1,9.431437225E0,-1.869612122E-1,-1.608255615E0,9.569401693E0
1.223812113E1,9.467362518E0,-1.814227295E-1,-1.607207794E0,9.604529356E0
1.224814313E1,9.548643494E0,-1.751358032E-1,-1.623823242E0,9.687314749E0
1.225816412E1,9.628726959E0,-1.666035461E-1,-1.650018768E0,9.770501601E0
1.226818613E1,9.664352875E0,-1.672023010E-1,-1.665436707E0,9.808228817E0
1.227820713E1,9.646839294E0,-1.532812500E-1,-1.654359741E0,9.788866618E0
1.228822813E1,9.602232056E0,-1.633103943E-1,-1.584754486E0,9.733497702E0
1.229825013E1,9.529932404E0,-1.654060364E-1,-1.511556702E0,9.650480529E0
1.230827113E1,9.470356293E0,-1.547781372E-1,-1.483115845E0,9.587034849E0
1.231829313E1,9.439221039E0,-1.606159973E-1,-1.437909851E0,9.549464700E0
1.232831413E1,9.458680573E0,-1.519340515E-1,-1.433269501E0,9.567862018E0
1.233833613E1,9.484427032E0,-1.311273193E-1,-1.483714600E0,9.600674951E0
1.234835713E1,9.516310730E0,-1.354682922E-1,-1.540746002E0,9.641183528E0
1.235837913E1,9.524992676E0,-1.254391479E-1,-1.591789856E0,9.657899119E0
1.236840013E1,9.506431274E0,-9.011260986E-2,-1.612446899E0,9.642631428E0
1.237842213E1,9.492210846E0,-5.852828979E-2,-1.611997833E0,9.628293167E0
1.238844313E1,9.497300262E0,-4.071533203E-2,-1.623823242E0,9.635204821E0
1.239846513E1,9.511371002E0,-4.760101318E-2,-1.662143555E0,9.655628690E0
1.240848613E1,9.543554077E0,-7.095245361E-2,-1.708397369E0,9.695518565E0
1.241850813E1,9.567803650E0,-8.726852417E-2,-1.779349823E0,9.732243743E0
1.242852913E1,9.542057190E0,-9.819580078E-2,-1.839674377E0,9.718276578E0
1.243855113E1,9.485774231E0,-8.577163696E-2,-1.873803406E0,9.669457520E0
1.244857213E1,9.423354034E0,-6.047424316E-2,-1.880389709E0,9.609324838E0
1.245859413E1,9.354347534E0,-3.517684937E-2,-1.881886597E0,9.541831709E0
1.246861513E1,9.267378387E0,-4.475692749E-2,-1.906884613E0,9.461633806E0
1.247863713E1,9.175170135E0,-6.646179199E-2,-1.938019867E0,9.377850777E0
1.248865813E1,9.078471222E0,-9.011260986E-2,-1.962718506E0,9.288650276E0
1.249868013E1,8.998687134E0,-1.176553345E-1,-1.981878662E0,9.215099345E0
1.250870113E1,8.928333435E0,-1.495390320E-1,-2.020797729E0,9.155387666E0
1.251872313E1,8.870104523E0,-1.779798889E-1,-2.064955902E0,9.109032548E0
1.252874413E1,8.789871368E0,-2.074685669E-1,-2.114203491E0,9.042938587E0
1.253876613E1,8.671617279E0,-2.348616028E-1,-2.135758667E0,8.933844150E0
1.254878713E1,8.545729065E0,-2.661465454E-1,-2.152972870E0,8.816780105E0
1.255880913E1,8.373886414E0,-2.851570129E-1,-2.167193298E0,8.654479475E0
1.256883013E1,8.174051971E0,-2.918930054E-1,-2.195185089E0,8.468716829E0
1.257885213E1,7.963739319E0,-2.749781799E-1,-2.192640381E0,8.264649344E0
1.258887313E1,7.762557678E0,-2.474354553E-1,-2.239043884E0,8.082811610E0
1.259889413E1,7.538323975E0,-2.291734314E-1,-2.306553497E0,7.886636662E0
1.260891613E1,7.269033966E0,-2.017803955E-1,-2.378104706E0,7.650813821E0
1.261893713E1,6.948101349E0,-1.493893433E-1,-2.459385681E0,7.372042285E0
1.262895913E1,6.600374451E0,-9.340576172E-2,-2.519710236E0,7.065593195E0
1.263898013E1,6.206543427E0,-8.981323242E-3,-2.542013855E0,6.706943895E0
1.264900213E1,5.799539795E0,8.487350464E-2,-2.587668915E0,6.351212149E0
1.265902313E1,5.419929199E0,1.490899658E-1,-2.619253235E0,6.021490501E0
1.266904513E1,5.042713623E0,1.502874756E-1,-2.612666931E0,5.681335715E0
1.267906613E1,4.659061432E0,1.342707825E-1,-2.621049500E0,5.347408956E0
1.268908813E1,4.248614960E0,1.008901978E-1,-2.629581757E0,4.997560217E0
1.269910913E1,3.815415802E0,6.915618896E-2,-2.649939423E0,4.645897035E0
1.270913113E1,3.376229095E0,1.736389160E-2,-2.748733978E0,4.353706799E0
1.271915213E1,2.958896942E0,-4.954696655E-2,-2.925815735E0,4.161480954E0
1.272917413E1,2.725831604E0,-6.451583862E-2,-3.207529907E0,4.209818088E0
1.273919513E1,2.976111145E0,5.553451538E-2,-3.637735291E0,4.700365909E0
1.274921713E1,3.431913300E0,6.017486572E-2,-3.851640472E0,5.159145689E0
1.275923812E1,3.917054443E0,-2.174977112E-1,-3.865262146E0,5.507347113E0
1.276926013E1,4.286635895E0,-5.984555054E-1,-3.714824982E0,5.703798816E0
1.277928113E1,4.224515076E0,-6.050418091E-1,-3.600163422E0,5.583348447E0
1.278930313E1,3.840264130E0,-1.923500061E-1,-4.514312439E0,5.929894089E0
1.279932413E1,4.006268921E0,2.215393066E-2,-5.417683868E0,6.738099136E0
1.280934613E1,4.524341583E0,1.748364258E-1,-5.443430328E0,7.080336735E0
1.281936713E1,4.959037628E0,1.791773987E-1,-5.921236725E0,7.725619916E0
1.282938913E1,6.781348114E0,8.783734131E-1,-6.679859161E0,9.559222799E0
1.283941013E1,9.157806244E0,1.977088623E0,-7.474257202E0,1.198494119E1
1.284943213E1,1.053673874E1,2.506687317E0,-9.542356567E0,1.443478138E1
1.285945313E1,1.128293701E1,2.306104431E0,-1.089539291E1,1.585346561E1
1.286947513E1,1.119881195E1,1.250798950E0,-1.115645004E1,1.585699419E1
1.287949613E1,9.983788605E0,-2.360591125E-1,-1.115091156E1,1.496912113E1
1.288951813E1,8.100405121E0,-1.979483643E0,-1.126138184E1,1.401262429E1
1.289953913E1,5.881269836E0,-3.462150421E0,-1.175251053E1,1.359033937E1
1.290956013E1,3.620970154E0,-4.269421692E0,-1.272399033E1,1.390105450E1
1.291958213E1,1.624122620E0,-4.397854614E0,-1.390608215E1,1.467508161E1
1.292960313E1,2.260299683E-1,-3.980223083E0,-1.471919128E1,1.524951991E1
1.293962513E1,-4.022135925E-1,-3.569926300E0,-1.486708374E1,1.529497723E1
1.294964613E1,-6.635700989E-1,-3.155887299E0,-1.505060211E1,1.539222446E1
1.295966813E1,-4.614903259E-1,-1.990410919E0,-1.574231369E1,1.587435508E1
1.296968913E1,1.023870850E-1,-3.122506714E-1,-1.663191376E1,1.663515972E1
1.297971113E1,8.896000671E-1,9.050180054E-1,-1.750864059E1,1.755457038E1
1.298973213E1,1.922751617E0,1.318607941E0,-1.823567871E1,1.838411485E1
1.299975413E1,3.091221771E0,1.056802368E0,-1.866184250E1,1.894562875E1
1.300977513E1,3.902085571E0,1.874102783E-1,-1.856409576E1,1.897068913E1
1.301979713E1,3.780238953E0,-6.861730957E-1,-1.878144379E1,1.917038525E1
1.302981813E1,2.905607758E0,-1.388662262E0,-1.995260834E1,2.021082677E1
1.303984013E1,2.132315826E0,-1.902393951E0,-2.115041748E1,2.134258731E1
1.304986113E1,1.576072540E0,-2.181713104E0,-2.179647400E1,2.196201620E1
1.305988313E1,1.220711517E0,-2.205064545E0,-2.214180588E1,2.228479333E1
1.306990413E1,1.097517700E0,-2.012265472E0,-2.247456390E1,2.259114384E1
1.307992613E1,1.291214905E0,-1.842668152E0,-2.297362610E1,2.308354734E1
1.308994713E1,1.806593170E0,-1.800306244E0,-2.363944153E1,2.377662880E1
1.309996479E1,2.746488647E0,-1.773362274E0,-2.442306198E1,2.464090035E1
1.310998579E1,4.269721069E0,-1.600471802E0,-2.533032532E1,2.573747091E1
1.312000779E1,6.480174408E0,-1.040037231E0,-2.635883652E1,2.716362642E1
1.313002879E1,9.380543060E0,1.315763855E-1,-2.737297760E1,2.893599494E1
1.314005079E1,1.394170807E1,1.489702148E0,-2.716296432E1,3.056823625E1
1.315007179E1,2.073413315E1,2.888393555E0,-2.153197403E1,3.003120045E1
1.316009379E1,2.834041580E1,4.719535675E0,-1.509386215E1,3.245424255E1
1.317011479E1,3.766243057E1,6.267017670E0,-1.086740112E1,3.969678317E1
1.318013679E1,4.647670120E1,5.697152710E0,-4.111649780E0,4.700475473E1
1.319015779E1,5.118845306E1,2.273322601E0,1.262624359E0,5.125446266E1
1.320017979E1,4.451862305E1,-1.026565247E0,4.265829163E0,4.473431493E1
1.321020079E1,2.890818512E1,-7.949967957E-1,3.796105957E0,2.916720088E1
1.322022179E1,1.731075211E1,-1.306782532E-1,2.195783844E0,1.744994791E1
1.323024379E1,1.110316086E1,-9.265731812E-2,6.366261292E-1,1.112178310E1
1.324026479E1,6.454427948E0,-3.076103210E-1,2.131567383E-1,6.465268752E0
1.325028679E1,2.285297699E0,-3.986210632E-1,-1.942959595E-1,2.327925094E0
1.326030779E1,-1.246907043E-1,-2.667453003E-1,-2.829116821E-1,4.083379077E-1
1.327032979E1,-9.822573853E-1,-2.034269714E-1,-4.086502075E-1,1.083146849E0
1.328035079E1,-1.034349060E0,-2.168989563E-1,-1.806742859E-1,1.072178312E0
1.329037279E1,-1.298998718E0,-3.670367432E-1,3.713777161E-1,1.400012517E0
1.330039379E1,-1.819765778E0,-6.833290100E-1,3.070115662E-1,1.967928384E0
1.331041579E1,-2.343227234E0,-4.617897034E-1,-7.217990112E-1,2.494986455E0
1.332043679E1,-2.668051758E0,2.055226135E-1,-1.797462158E0,3.223602013E0
1.333045879E1,-2.975362701E0,5.821394348E-1,-3.308719482E0,4.487682491E0
1.334047979E1,-3.612886963E0,6.177653503E-1,-4.055516510E0,5.466424828E0
1.335050179E1,-4.564158783E0,4.605921936E-1,-4.776866455E0,6.622850119E0
1.336052279E1,-5.142556000E0,9.518705750E-1,-7.786657562E0,9.379977388E0
1.337054479E1,-6.197113037E0,1.587598572E0,-1.245020966E1,1.399758550E1
1.338056579E1,-7.116950226E0,1.425485687E0,-1.795920364E1,1.937049265E1
1.339058779E1,-8.027207336E0,4.668791199E-1,-2.122735748E1,2.269922332E1
1.340060879E1,-9.225615234E0,1.411564636E-1,-2.221769806E1,2.405738990E1
1.341063079E1,-1.041234741E1,6.239025879E-1,-1.950249435E1,2.211681530E1
1.342065179E1,-9.716145172E0,1.230890350E0,-1.256532028E1,1.593128500E1
1.343067379E1,-8.197702789E0,9.839039612E-1,-7.747289429E0,1.132214165E1
1.344069479E1,-6.940167847E0,3.999682617E-1,-4.650828552E0,8.363976959E0
1.345071679E1,-5.826633453E0,1.794767761E-1,-3.203787689E0,6.651776069E0
1.346073779E1,-5.328918457E0,1.660047913E-1,-2.504441986E0,5.890429456E0
1.347075979E1,-5.008135529E0,-2.290237427E-2,-2.127974854E0,5.441527632E0
1.348078079E1,-4.735552368E0,-2.344125366E-1,-1.875000916E0,5.098630591E0
1.349080279E1,-4.675976257E0,-4.357438660E-1,-1.459165649E0,4.917701808E0
1.350082379E1,-4.421355743E0,-6.533912659E-1,-1.047821045E0,4.590559410E0
1.351084579E1,-4.095483398E0,-7.830216980E-1,-1.161584473E-1,4.171282780E0
1.352086679E1,-4.129163361E0,-1.178648987E0,1.032552795E0,4.416488285E0
1.353088779E1,-4.275109863E0,-1.528172150E0,2.696642303E0,5.280507000E0
1.354090979E1,-4.065845032E0,-1.362017670E0,5.553301849E0,7.016077920E0
1.355093079E1,-3.620072021E0,-8.352630615E-1,6.175108795E0,7.206563290E0
1.356095279E1,-3.456462250E0,-2.782713318E-1,5.331014099E0,6.359581554E0
1.357097379E1,-3.623215485E0,1.534309387E-1,6.497837677E0,7.441312114E0
1.358099579E1,-4.250111847E0,6.478527832E-1,9.427096252E0,1.036114413E1
1.359101679E1,-5.265899506E0,9.825567627E-1,1.129281647E1,1.249891272E1
1.360103879E1,-5.602399750E0,1.103056183E0,8.503965912E0,1.024309778E1
1.361105979E1,-4.847669220E0,1.033001862E0,3.974235535E0,6.353073099E0
1.362108179E1,-3.713477783E0,9.913883972E-1,1.701062622E0,4.203139570E0
1.363110279E1,-2.176623688E0,1.163530426E0,7.517367554E-1,2.580039124E0
1.364112479E1,-5.291496277E-1,1.128652954E0,5.596861267E-1,1.366420645E0
1.365114579E1,1.707948303E-1,8.195457458E-1,4.219725037E-1,9.374896786E-1
1.366116779E1,2.077679443E-1,6.012995911E-1,8.771759033E-2,6.422017538E-1
1.367118879E1,1.092727661E-1,4.628375244E-1,-3.293151855E-2,4.767007409E-1
1.368121079E1,7.065307617E-2,3.685336304E-1,-1.077758789E-2,3.753998539E-1
1.369123179E1,2.664459229E-2,3.396437073E-1,1.945953369E-2,3.412425173E-1
1.370125379E1,-4.580474854E-2,3.198847961E-1,7.619155884E-2,3.320083002E-1
1.371127479E1,-1.005908203E-1,2.998265076E-1,1.574725342E-1,3.532874846E-1
1.372129679E1,-1.844165039E-1,2.885998535E-1,1.924996948E-1,3.928809678E-1
1.373131779E1,-3.357518005E-1,3.185375977E-1,1.655557251E-1,4.915324718E-1
1.374133979E1,-5.209167480E-1,3.423381042E-1,6.032455444E-2,6.262497009E-1
1.375136079E1,-6.737489319E-1,3.682342529E-1,-9.116043091E-2,7.732039268E-1
1.376138279E1,-8.159532166E-1,3.954776001E-1,-3.098556519E-1,9.582237258E-1
1.377140379E1,-9.237290955E-1,3.597019958E-1,-5.599855042E-1,1.138527440E0
1.378142579E1,-1.048569489E0,1.907034302E-1,-8.078700256E-1,1.337355506E0
1.379144679E1,-1.169368286E0,7.140151978E-2,-1.014290771E0,1.549614834E0
1.380146779E1,-1.230740662E0,1.251397705E-1,-1.099613342E0,1.655153177E0
1.381148979E1,-1.335073700E0,2.080673218E-1,-1.167422333E0,1.785661977E0
1.382151079E1,-1.651066589E0,1.175056458E-1,-1.307680664E0,2.109468459E0
1.383153279E1,-2.059567108E0,-3.532653809E-2,-1.982926483E0,2.859206546E0
1.384155379E1,-3.805835724E0,-3.124003601E-1,-6.038143616E0,7.144309474E0
1.385157579E1,-5.098547516E0,1.163380737E0,-2.382236115E1,2.438961935E1
1.386159679E1,9.112001495E0,5.092559967E0,-5.584646667E1,5.681364782E1
1.387161879E1,5.356670746E1,4.894521790E0,-5.947342438E1,8.019000373E1
1.388163979E1,8.171222855E1,-2.713706818E0,-5.087320862E1,9.629296887E1
1.389166179E1,7.966149307E1,-4.947960663E0,-4.711886581E1,9.268561544E1
1.390168279E1,7.919880524E1,-8.505762177E0,-2.816932159E1,8.448851650E1
1.391170479E1,6.747668152E1,-5.573659515E0,-7.505242767E0,6.812119272E1
1.392172579E1,4.522530350E1,-3.592978363E0,-4.614903259E-1,4.537015036E1
1.393174779E1,2.908975754E1,-4.264182587E0,5.051245880E0,2.983139842E1
1.394176879E1,1.537916885E1,-3.164419556E0,1.935490128E1,2.492277250E1
1.395179079E1,6.793772278E0,-1.269210663E0,3.523238388E1,3.590385928E1
1.396181179E1,3.159779205E0,-9.157955933E-1,2.405273209E1,2.427667207E1
1.397183379E1,3.615431671E0,-1.125509491E0,1.923769501E1,1.960681073E1
1.398185479E1,3.642375641E0,-2.866838379E0,1.628897690E1,1.693565561E1
1.399187679E1,2.436483307E0,-4.757257233E0,1.449525696E1,1.544928547E1
1.400189779E1,1.486109619E0,-4.796325989E0,1.240904526E1,1.338647336E1
1.401191979E1,1.053808594E0,-3.373085632E0,9.509125671E0,1.014453992E1
1.402194079E1,3.851490784E-1,-2.231709137E0,7.284601593E0,7.628517933E0
1.403196279E1,-1.604663086E-1,-1.558708649E0,5.870941315E0,6.076452420E0
1.404198379E1,3.685336304E-1,-1.337618408E0,3.960164795E0,4.196182223E0
1.405200579E1,9.642947388E-1,-1.296004944E0,3.002755737E0,3.409697226E0
1.406202679E1,1.260828094E0,-9.178912354E-1,2.887495422E0,3.281743686E0
1.407204879E1,1.444496155E0,-3.707789612E-1,2.680475922E0,3.067408898E0
1.408206979E1,1.655257874E0,4.460723877E-2,2.622247009E0,3.101297762E0
1.409209179E1,1.939816132E0,1.628613281E-1,2.420616302E0,3.106250750E0
1.410211629E1,2.261197815E0,2.287243652E-1,2.083517303E0,3.083240949E0
1.411213729E1,2.711910553E0,2.077679443E-1,1.830243988E0,3.278325704E0
1.412215929E1,3.253783722E0,2.294728088E-1,1.572030945E0,3.620918056E0
1.413218029E1,3.757785645E0,2.878514099E-1,1.574875031E0,4.084610477E0
1.414220229E1,4.232897644E0,3.312611389E-1,1.857487335E0,4.634373270E0
1.415222329E1,4.692591705E0,4.135899353E-1,2.281854858E0,5.234341902E0
1.416224529E1,5.314099274E0,5.905220032E-1,2.877316589E0,6.071846349E0
1.417226629E1,6.431675262E0,7.622149658E-1,3.651356964E0,7.435040418E0
1.418228829E1,8.043373718E0,8.020321655E-1,4.516258392E0,9.259357766E0
1.419230929E1,9.927206268E0,7.475454712E-1,5.379662933E0,1.131587477E1
1.420233129E1,1.192405380E1,7.765850830E-1,6.062842255E0,1.339941042E1
1.421235229E1,1.386970779E1,8.440946960E-1,6.410718842E0,1.530289535E1
1.422237429E1,1.521481064E1,1.012793884E0,5.884263611E0,1.634444164E1
1.423239529E1,1.529085251E1,1.228046265E0,4.011657715E0,1.585596625E1
1.424241729E1,1.447115707E1,1.190175018E0,2.190844116E0,1.468436929E1
1.425243829E1,1.325373871E1,1.084644470E0,1.525328064E0,1.338524072E1
1.426246029E1,1.189082291E1,1.015338593E0,1.166673889E0,1.199098452E1
1.427248129E1,1.055140823E1,7.562274170E-1,6.897656250E-1,1.060093733E1
1.428250329E1,9.204060059E0,2.528242493E-1,2.472857666E-1,9.210851856E0
1.429252429E1,7.942333832E0,-2.128573608E-1,-1.945953369E-2,7.945209476E0
1.430254629E1,7.099436646E0,-4.245172119E-1,-8.876541138E-2,7.112671428E0
1.431256729E1,6.663543091E0,-4.388873291E-1,1.321751404E-1,6.679288800E0
1.432258929E1,6.803801422E0,-2.495310974E-1,7.372169495E-1,6.848172631E0
1.433261029E1,7.411238251E0,8.038284302E-2,1.539698181E0,7.569913097E0
1.434263229E1,8.253386993E0,4.357438660E-1,2.676733704E0,8.687529735E0
1.435265329E1,9.070986786E0,7.057823181E-1,3.898642731E0,9.898502164E0
1.436267529E1,9.576186218E0,8.397537231E-1,5.418432312E0,1.103485104E1
1.437269629E1,9.620194702E0,9.449848938E-1,7.254065094E0,1.208563622E1
1.438271729E1,9.846374359E0,7.203021240E-1,6.103407898E0,1.160695960E1
1.439273929E1,9.582024078E0,2.718347168E-1,5.083279266E0,1.085029067E1
1.440276029E1,9.102720795E0,-2.115101624E-1,4.900958405E0,1.034038953E1
1.441278229E1,8.652906189E0,-5.999523926E-1,4.938979340E0,9.981294771E0
1.442280329E1,8.143964539E0,-8.711883545E-1,5.356461182E0,9.786460236E0
1.443282529E1,7.714357910E0,-1.020278320E0,5.616320801E0,9.596631969E0
1.444284629E1,7.396269379E0,-9.830058289E-1,5.663023682E0,9.367013313E0
1.445286829E1,7.141349487E0,-8.349636841E-1,5.447322235E0,9.020496460E0
1.446288929E1,7.006629639E0,-7.033872986E-1,5.384303284E0,8.864442139E0
1.447291129E1,7.035818939E0,-6.030958557E-1,5.337001648E0,8.851556888E0
1.448293229E1,7.126530304E0,-4.210743713E-1,5.395679626E0,8.948636568E0
1.449295429E1,7.276967468E0,-1.977388000E-1,5.340145111E0,9.028316896E0
1.450297529E1,7.551945648E0,-1.272354126E-1,5.168452148E0,9.152101919E0
1.451299729E1,7.837701416E0,-6.855743408E-2,5.002746735E0,9.298480440E0
1.452301829E1,8.040379944E0,4.071533203E-2,4.885241089E0,9.408238298E0
1.453304029E1,8.193062439E0,1.592687988E-1,4.754413147E0,9.473968706E0
1.454306129E1,8.291108551E0,2.734812927E-1,4.543052673E0,9.458149957E0
1.455308329E1,8.420888672E0,3.767665100E-1,4.346212006E0,9.483821900E0
1.456310429E1,8.563092957E0,4.367916870E-1,4.233795776E0,9.562550634E0
1.457312629E1,8.661139069E0,4.810995483E-1,4.140689392E0,9.612080700E0
1.458314729E1,8.783434753E0,4.833448792E-1,4.138893127E0,9.721768597E0
1.459316929E1,8.875942383E0,4.234693909E-1,4.087400208E0,9.781028574E0
1.460319029E1,8.936716003E0,3.124003601E-1,4.100423126E0,9.837477152E0
1.461321229E1,8.934470673E0,1.731898499E-1,4.130660248E0,9.844649055E0
1.462323329E1,8.814270630E0,-4.640350342E-2,4.135899353E0,9.736487225E0
1.463325529E1,8.629405060E0,-2.924917603E-1,4.142335968E0,9.576592838E0
1.464327629E1,8.458610229E0,-5.266049194E-1,4.187092896E0,9.452890916E0
1.465329729E1,8.367898865E0,-7.286846924E-1,4.287683716E0,9.430638602E0
1.466331929E1,8.363108826E0,-8.863069153E-1,4.438120880E0,9.509155910E0
1.467334029E1,8.415050812E0,-9.375004578E-1,4.612059174E0,9.641736207E0
1.468336229E1,8.485105133E0,-9.045689392E-1,4.772076416E0,9.776909911E0
1.469338329E1,8.541537781E0,-7.692503357E-1,4.901557159E0,9.877999612E0
1.470340529E1,8.521479492E0,-5.709127808E-1,4.931794281E0,9.862258817E0
1.471342629E1,8.458011475E0,-3.218307495E-1,4.966222687E0,9.813506046E0
1.472344829E1,8.410859528E0,-5.598358154E-2,5.058131561E0,9.814804483E0
1.473346929E1,8.357121277E0,1.779798889E-1,5.150788879E0,9.818542609E0
1.474349129E1,8.328381042E0,3.573069763E-1,5.261857910E0,9.857826725E0
1.475351229E1,8.289911041E0,4.906796265E-1,5.436245270E0,9.925530424E0
1.476353429E1,8.298443298E0,6.062393188E-1,5.587430878E0,1.002252818E1
1.477355529E1,8.327931976E0,6.547384644E-1,5.606890411E0,1.006083265E1
1.478357729E1,8.339907074E0,6.500981140E-1,5.591023407E0,1.006162116E1
1.479359829E1,8.281229095E0,6.105802917E-1,5.583838348E0,1.000653858E1
1.480362029E1,8.211324463E0,5.457650757E-1,5.577102356E0,9.941216205E0
1.481364129E1,8.167315979E0,4.219725037E-1,5.555696869E0,9.886803265E0
1.482366329E1,8.147257690E0,2.402503967E-1,5.521717529E0,9.845044063E0
1.483368429E1,8.156987457E0,5.239105225E-2,5.520969086E0,9.849887758E0
1.484370629E1,8.178692322E0,-1.275347900E-1,5.498515778E0,9.856010804E0
1.485372729E1,8.183182983E0,-2.695893860E-1,5.412744141E0,9.815037509E0
1.486374929E1,8.200247498E0,-3.595523071E-1,5.309758301E0,9.775830916E0
1.487377029E1,8.239316254E0,-3.571572876E-1,5.193599854E0,9.746146577E0
1.488379229E1,8.311765594E0,-2.999761963E-1,5.043312378E0,9.726789437E0
1.489381329E1,8.428223419E0,-2.592608643E-1,4.945865021E0,9.775671179E0
1.490383529E1,8.540639648E0,-2.348616028E-1,4.871020660E0,9.834862879E0
1.491385629E1,8.628207550E0,-2.104623413E-1,4.799319763E0,9.875410377E0
1.492387729E1,8.666078796E0,-1.692979431E-1,4.747826843E0,9.882886382E0
1.493389929E1,8.630452881E0,-1.128652954E-1,4.699327698E0,9.827570214E0
1.494392029E1,8.589887238E0,-6.301895142E-2,4.676125946E0,9.780403264E0
1.495394229E1,8.555758209E0,-2.185455322E-2,4.666096802E0,9.745457173E0
1.496396329E1,8.506809998E0,2.095642090E-3,4.662204895E0,9.700617259E0
1.497398529E1,8.470884705E0,3.966751099E-2,4.720433807E0,9.697420096E0
1.498400629E1,8.418643341E0,3.757186890E-2,4.781506805E0,9.681827032E0
1.499402829E1,8.390052795E0,3.502716064E-2,4.882696381E0,9.707468092E0
1.500404929E1,8.370293884E0,2.694396973E-2,4.969815216E0,9.734557461E0
1.501407129E1,8.363408203E0,1.841171265E-2,5.033582611E0,9.761346714E0
1.502409229E1,8.343499603E0,1.616638184E-2,5.102888489E0,9.780271873E0
1.503411429E1,8.289911041E0,2.230361938E-2,5.100194092E0,9.733195893E0
1.504413529E1,8.232879639E0,2.035766602E-2,5.081932068E0,9.675058404E0
1.505415729E1,8.195457458E0,5.987548828E-4,5.059778137E0,9.631556370E0
1.506417829E1,8.176297302E0,-5.987548828E-4,5.033133545E0,9.601264043E0
1.507420029E1,8.192613373E0,-1.496887207E-2,4.990322571E0,9.592833643E0
1.508422129E1,8.189769287E0,-3.637435913E-2,4.968318329E0,9.579030801E0
1.509424329E1,8.198002167E0,-8.023315430E-2,4.965025177E0,9.584631025E0
1.510426504E1,8.209677887E0,-1.281335449E-1,4.957840118E0,9.591423661E0
1.511428704E1,8.236771545E0,-1.636097717E-1,4.945415955E0,9.608762283E0
1.512430804E1,8.260272675E0,-1.764830017E-1,4.913681946E0,9.612883083E0
1.513433004E1,8.291108551E0,-1.948947144E-1,4.877606964E0,9.621409182E0
1.514435104E1,8.317902832E0,-2.140548706E-1,4.871619415E0,9.641887924E0
1.515437304E1,8.339458008E0,-2.336640930E-1,4.910837860E0,9.680779269E0
1.516439404E1,8.334817657E0,-2.426454163E-1,4.939428406E0,9.691543487E0
1.517441604E1,8.336763611E0,-2.171983337E-1,4.949906616E0,9.697957420E0
1.518443704E1,8.309669952E0,-1.927990723E-1,4.954996033E0,9.676764536E0
1.519445904E1,8.288414154E0,-1.695973206E-1,5.047653351E0,9.705945435E0
1.520448004E1,8.277786255E0,-1.311273193E-1,5.100942535E0,9.724122295E0
1.521450104E1,8.272397461E0,-9.565109253E-2,5.108277283E0,9.722973089E0
1.522452304E1,8.261470184E0,-8.637039185E-2,5.122946777E0,9.721313344E0
1.523454404E1,8.261170807E0,-8.786727905E-2,5.183121643E0,9.752918216E0
1.524456604E1,8.282127228E0,-8.711883545E-2,5.212909698E0,9.786503392E0
1.525458704E1,8.301437073E0,-1.068777466E-1,5.221891022E0,9.807824742E0
1.526460904E1,8.304131470E0,-1.204994202E-1,5.246739349E0,9.823512273E0
1.527463004E1,8.315956879E0,-1.546284485E-1,5.294490051E0,9.859547336E0
1.528465204E1,8.322094116E0,-1.830693054E-1,5.315147095E0,9.876312748E0
1.529467304E1,8.306077423E0,-1.954934692E-1,5.298232269E0,9.853953777E0
1.530469504E1,8.285719757E0,-2.077679443E-1,5.313051453E0,9.845041145E0
1.531471604E1,8.278534698E0,-2.019300842E-1,5.345982971E0,9.856695513E0
1.532473804E1,8.276439056E0,-1.549278259E-1,5.366640015E0,9.865306439E0
1.533475904E1,8.289761353E0,-7.888595581E-2,5.397625580E0,9.892458146E0
1.534478104E1,8.288414154E0,-1.422042847E-2,5.393733673E0,9.888901574E0
1.535480204E1,8.237370300E0,2.200424194E-2,5.368286591E0,9.832255823E0
1.536482404E1,8.161328430E0,7.080276489E-2,5.284610596E0,9.723137556E0
1.537484504E1,8.096363525E0,1.362167358E-1,5.247487793E0,9.649133923E0
1.538486704E1,8.130941620E0,1.933978271E-1,5.258564758E0,9.685149336E0
1.539488804E1,8.225395203E0,2.151026917E-1,5.225184174E0,9.747099315E0
1.540491004E1,8.387059021E0,1.905537415E-1,5.298980713E0,9.922613887E0
1.541493104E1,8.523275757E0,1.457968140E-1,5.344186707E0,1.006120360E1
1.542495304E1,8.546178131E0,1.034349060E-1,5.248535614E0,1.002970516E1
1.543497404E1,8.480015717E0,5.224136353E-2,5.167104950E0,9.930376089E0
1.544499604E1,8.369246063E0,4.340972900E-3,5.143304443E0,9.823333401E0
1.545501704E1,8.287965088E0,-1.167572021E-2,5.105882263E0,9.734502314E0
1.546503804E1,8.260272675E0,-3.143463135E-3,5.098248138E0,9.706917565E0
1.547506004E1,8.293952637E0,2.335144043E-2,5.068310394E0,9.719977669E0
1.548508104E1,8.337661743E0,5.269042969E-2,5.052144012E0,9.749027580E0
1.549510304E1,8.377179565E0,7.035369873E-2,5.077142029E0,9.795889867E0
1.550512404E1,8.385262756E0,7.649093628E-2,5.071453857E0,9.799904417E0
1.551514604E1,8.361312561E0,1.089733887E-1,5.064119110E0,9.775925803E0
1.552516704E1,8.363108826E0,1.348695374E-1,5.063520355E0,9.777475002E0
1.553518904E1,8.383167114E0,1.529818726E-1,5.076393585E0,9.801564475E0
1.554521004E1,8.366551666E0,1.607656860E-1,5.077441406E0,9.788025522E0
1.555523204E1,8.355025635E0,1.465452576E-1,5.091512146E0,9.785265699E0
1.556525304E1,8.342302094E0,1.213975525E-1,5.147795105E0,9.803496113E0
1.557527504E1,8.322543182E0,1.044827271E-1,5.120851135E0,9.772346597E0
1.558529604E1,8.316855011E0,6.062393188E-2,5.109923859E0,9.761407397E0
1.559531804E1,8.355624390E0,2.005828857E-2,5.149890747E0,9.815204327E0
1.560533904E1,8.414751434E0,1.197509766E-3,5.169649658E0,9.875895945E0
1.561536104E1,8.449628906E0,-9.879455566E-3,5.172643433E0,9.907197704E0
1.562538204E1,8.416996765E0,-3.442840576E-3,5.157973938E0,9.871704085E0
1.563540404E1,8.380173340E0,1.332229614E-2,5.150489502E0,9.836413208E0
1.564542504E1,8.327632599E0,-1.347198486E-3,5.122048645E0,9.776750423E0
1.565544704E1,8.298892365E0,-3.966751099E-2,5.072501678E0,9.726431065E0
1.566546804E1,8.299640808E0,-6.242019653E-2,5.045707397E0,9.713243380E0
1.567549004E1,8.317902832E0,-9.774673462E-2,5.010530548E0,9.710946314E0
1.568551104E1,8.336613922E0,-1.338217163E-1,4.971461792E0,9.707341154E0
1.569553304E1,8.379873962E0,-1.517843628E-1,4.960235138E0,9.739058411E0
1.570555404E1,8.408913574E0,-1.562750244E-1,4.944817200E0,9.756303937E0
1.571557604E1,8.401279449E0,-1.437011719E-1,4.921914825E0,9.737935714E0
1.572559704E1,8.358917542E0,-1.179547119E-1,4.929698639E0,9.705016458E0
1.573561904E1,8.325836334E0,-6.107299805E-2,4.948709106E0,9.685711249E0
1.574564004E1,8.318800964E0,-3.158432007E-2,5.001698914E0,9.706721335E0
1.575566104E1,8.326285400E0,2.140548706E-2,5.034480743E0,9.730029965E0
1.576568304E1,8.307424622E0,4.026626587E-2,5.059478760E0,9.726934282E0
1.577570404E1,8.286468201E0,4.834945679E-2,5.087171173E0,9.723538628E0
1.578572604E1,8.272397461E0,4.251159668E-2,5.103487244E0,9.720079682E0
1.579574704E1,8.291856995E0,3.293151855E-2,5.115013275E0,9.742655578E0
1.580576904E1,8.281827850E0,2.888992310E-2,5.089715881E0,9.720839209E0
1.581579004E1,8.262967072E0,1.077758789E-2,5.054389343E0,9.686257926E0
1.582581204E1,8.233029327E0,-2.005828857E-2,5.021008759E0,9.643324281E0
1.583583304E1,8.196355591E0,-3.472778320E-2,4.971761169E0,9.586441473E0
1.584585504E1,8.209977264E0,-7.214996338E-2,4.951553192E0,9.587847064E0
1.585587604E1,8.254734192E0,-1.110690308E-1,4.968617706E0,9.635358572E0
1.586589804E1,8.332272949E0,-1.453477478E-1,4.932093658E0,9.683669053E0
1.587591904E1,8.398435364E0,-1.450483704E-1,4.900659027E0,9.724773236E0
1.588594104E1,8.448880463E0,-1.713935852E-1,4.886588287E0,9.761746868E0
1.589596204E1,8.488098907E0,-1.736389160E-1,4.850513306E0,9.777804092E0
1.590598404E1,8.494236145E0,-1.782792664E-1,4.810247040E0,9.763314384E0
1.591600504E1,8.478069763E0,-1.883084106E-1,4.806205444E0,9.747447755E0
1.592602704E1,8.446784821E0,-1.637594604E-1,4.774172058E0,9.704004833E0
1.593604804E1,8.435109100E0,-1.399589539E-1,4.778363342E0,9.695535585E0
1.594607004E1,8.444389801E0,-9.954299927E-2,4.817581787E0,9.722485392E0
1.595609104E1,8.459658051E0,-7.155120850E-2,4.806205444E0,9.729878965E0
1.596611304E1,8.467441864E0,-3.442840576E-2,4.817132721E0,9.741844009E0
1.597613404E1,8.452323303E0,-2.469863892E-2,4.826862488E0,9.733497867E0
1.598615604E1,8.415499878E0,-1.451980591E-2,4.811145172E0,9.693707592E0
1.599617704E1,8.360564117E0,3.293151855E-3,4.773872681E0,9.627507651E0
1.600619904E1,8.306975555E0,1.257385254E-2,4.734654236E0,9.561535008E0
1.601622004E1,8.280031586E0,2.769241333E-2,4.702620850E0,9.522307115E0
1.602624104E1,8.263715515E0,3.817062378E-2,4.665348358E0,9.489780104E0
1.603626304E1,8.292755127E0,1.871109009E-2,4.625830536E0,9.495706706E0
1.604628404E1,8.375682678E0,-8.981323242E-3,4.655319214E0,9.582491220E0
1.605630604E1,8.476423187E0,-2.140548706E-2,4.664150848E0,9.674942448E0
1.606632704E1,8.556207275E0,-8.382568359E-3,4.647834778E0,9.737100253E0
1.607634904E1,8.584049377E0,7.035369873E-3,4.617597656E0,9.747213003E0
1.608637004E1,8.563991089E0,1.691482544E-2,4.556374969E0,9.700658861E0
1.609639204E1,8.484207001E0,3.188369751E-2,4.473447418E0,9.591377211E0
1.610641238E1,8.377928009E0,1.646575928E-3,4.383035431E0,9.455193283E0
1.611643438E1,8.230933685E0,-1.212478638E-2,4.263733521E0,9.269727066E0
1.612645538E1,8.103398895E0,-2.829116821E-2,4.158202972E0,9.108047321E0
1.613647738E1,7.979606323E0,-3.038681030E-2,4.030069427E0,8.939602901E0
1.614649838E1,7.875872040E0,-3.457809448E-2,3.924987946E0,8.799777634E0
1.615652038E1,7.756869507E0,-2.305206299E-2,3.770658875E0,8.624814450E0
1.616654138E1,7.624245300E0,3.891906738E-3,3.643423462E0,8.450068998E0
1.617656338E1,7.515720978E0,-9.430389404E-3,3.466341705E0,8.276573903E0
1.618658438E1,7.377707977E0,3.442840576E-3,3.280128937E0,8.074022089E0
1.619660638E1,7.217690735E0,1.062789917E-2,3.104244690E0,7.856940091E0
1.620662738E1,7.067702637E0,1.886077881E-2,2.912194061E0,7.644190640E0
1.621664938E1,6.951693878E0,1.751358032E-2,2.741249542E0,7.472670443E0
1.622667038E1,6.825356598E0,2.065704346E-2,2.515968018E0,7.274339452E0
1.623669238E1,6.697073364E0,1.511856079E-2,2.272873535E0,7.072267976E0
1.624671338E1,6.562652893E0,1.766326904E-2,2.004930725E0,6.862104065E0
1.625673538E1,6.392905884E0,4.161346436E-2,1.726958771E0,6.622187246E0
1.626675638E1,6.194718018E0,6.316864014E-2,1.501976624E0,6.374516089E0
1.627677838E1,5.951473846E0,7.993377686E-2,1.387913818E0,6.111688402E0
1.628679938E1,5.658233643E0,1.258882141E-1,1.366059265E0,5.822162288E0
1.629682038E1,5.308560791E0,1.996847534E-1,1.360820160E0,5.483842009E0
1.630684238E1,4.937632141E0,3.861968994E-1,1.341061249E0,5.131062705E0
1.631686338E1,4.511468353E0,6.530918884E-1,1.313518524E0,4.743965286E0
1.632688538E1,3.991599426E0,8.478369141E-1,1.546284485E0,4.363792974E0
1.633690638E1,3.323688354E0,9.780661011E-1,1.902244263E0,3.952474011E0
1.634692838E1,2.328108673E0,9.199868774E-1,1.915416870E0,3.152029130E0
1.635694938E1,1.199006653E0,7.243437195E-1,1.650916901E0,2.165136806E0
1.636697138E1,3.068618774E-1,2.906954956E-1,1.429976349E0,1.491140651E0
1.637699238E1,2.656974792E-1,4.939727783E-3,1.546284485E0,1.568953556E0
1.638701438E1,1.439706116E0,3.632945251E-1,1.249002686E0,1.940294905E0
1.639703538E1,2.193837891E0,-5.343887329E-2,2.288740540E-1,2.206391565E0
1.640705738E1,1.966460724E0,-1.512903900E0,-2.203417969E0,3.318267128E0
1.641707838E1,1.490001526E0,-2.156116333E0,-6.797813873E0,7.285548411E0
1.642710038E1,3.477867737E0,-2.421514435E0,-1.108879074E1,1.187099727E1
1.643712138E1,7.021748199E0,-2.232756958E0,-1.401909714E1,1.583746305E1
1.644714338E1,9.533824310E0,-1.260379028E0,-1.346479980E1,1.654639523E1
1.645716438E1,1.097652420E1,-9.099577332E-1,-1.176762909E1,1.611797757E1
1.646718638E1,1.182331329E1,-1.635798340E0,-1.014724869E1,1.566630873E1
1.647720738E1,1.121258331E1,-2.135010223E0,-9.505832520E0,1.485399425E1
1.648722938E1,8.523874512E0,-2.082319794E0,-1.019963974E1,1.345455846E1
1.649725038E1,3.974385223E0,-1.754351807E0,-1.273177414E1,1.345256707E1
1.650727238E1,-4.058061218E-1,-1.462608490E0,-1.542856613E1,1.550304986E1
1.651729338E1,-2.842888184E0,-1.069675598E0,-1.759980103E1,1.785998923E1
1.652731538E1,-4.074377289E0,-7.485932922E-1,-1.812191528E1,1.858937212E1
1.653733638E1,-4.870272217E0,-1.200054474E0,-1.717708008E1,1.789446177E1
1.654735838E1,-4.893024902E0,-1.930834808E0,-1.611908020E1,1.695566461E1
1.655737938E1,-3.951033783E0,-2.856809235E0,-1.561373108E1,1.635728049E1
1.656740038E1,-2.445464630E0,-3.635190582E0,-1.516212021E1,1.578242051E1
1.657742238E1,-8.675958252E-1,-2.839445343E0,-1.418704788E1,1.449439547E1
1.658744337E1,6.367758179E-1,-1.742975464E0,-1.378887589E1,1.391317883E1
1.659746538E1,1.521585846E0,-9.704319763E-1,-1.430679886E1,1.442017529E1
1.660748638E1,1.332678680E0,-5.679190063E-1,-1.540940598E1,1.547734980E1
1.661750838E1,3.586541748E-1,-6.761439514E-1,-1.714369949E1,1.716077608E1
